File: data/spectra_ascii/AsphaltNassPfuetzen___corthum00444.txt
Wavelength (nm),Reflectance
350.0,0.025173
352.0,0.0246776
354.0,0.0254472
356.0,0.0243144
358.0,0.0245508
360.0,0.0243006
362.0,0.0243251
364.0,0.0242109
366.0,0.0242277
368.0,0.0243225
370.0,0.0239891
372.0,0.0238415
374.0,0.0243275
376.0,0.0240753
378.0,0.0240045
380.0,0.0242732
382.0,0.0242211
384.0,0.0239977
386.0,0.0240238
388.0,0.0241878
390.0,0.024066
392.0,0.0241422
394.0,0.0239934
396.0,0.024257
398.0,0.0243809
400.0,0.0239367
402.0,0.0240705
404.0,0.0239624
406.0,0.0242254
408.0,0.0242047
410.0,0.0243369
412.0,0.0242957
414.0,0.024251
416.0,0.0244453
418.0,0.0244266
420.0,0.0244818
422.0,0.024531
424.0,0.0245056
426.0,0.0246641
428.0,0.0247531
430.0,0.0249089
432.0,0.0249533
434.0,0.0249563
436.0,0.0251024
438.0,0.0252347
440.0,0.0252935
442.0,0.0254189
444.0,0.0255309
446.0,0.0255075
448.0,0.0256938
450.0,0.0257102
452.0,0.0257397
454.0,0.0258424
456.0,0.0259466
458.0,0.0259692
460.0,0.0260882
462.0,0.0261662
464.0,0.0262043
466.0,0.0262885
468.0,0.0264193
470.0,0.0265074
472.0,0.0265664
474.0,0.0266481
476.0,0.0267254
478.0,0.0268196
480.0,0.0269108
482.0,0.0269888
484.0,0.0270601
486.0,0.027247
488.0,0.0273535
490.0,0.0273806
492.0,0.0275794
494.0,0.0276905
496.0,0.0278021
498.0,0.0279228
500.0,0.0280393
502.0,0.0282063
504.0,0.0283906
506.0,0.0284594
508.0,0.0286183
510.0,0.0287539
512.0,0.028876
514.0,0.0291004
516.0,0.0291987
518.0,0.0293439
520.0,0.029501
522.0,0.0296353
524.0,0.0297927
526.0,0.0299452
528.0,0.0301444
530.0,0.0303787
532.0,0.0305698
534.0,0.0307818
536.0,0.0309701
538.0,0.0311793
540.0,0.0314521
542.0,0.0317136
544.0,0.0319937
546.0,0.0321886
548.0,0.0324173
550.0,0.0326852
552.0,0.0329923
554.0,0.0333091
556.0,0.0336458
558.0,0.0339583
560.0,0.0343291
562.0,0.0345657
564.0,0.0348632
566.0,0.0351883
568.0,0.0354192
570.0,0.0357503
572.0,0.0360721
574.0,0.0363682
576.0,0.0366549
578.0,0.0369299
580.0,0.0371908
582.0,0.0374073
584.0,0.0376961
586.0,0.0379974
588.0,0.0382684
590.0,0.0385311
592.0,0.0387192
594.0,0.038958
596.0,0.0392148
598.0,0.0393157
600.0,0.0395572
602.0,0.0397381
604.0,0.0399856
606.0,0.0401449
608.0,0.0403541
610.0,0.0405477
612.0,0.0407461
614.0,0.0409709
616.0,0.0411244
618.0,0.0413027
620.0,0.0415292
622.0,0.0417332
624.0,0.0419547
626.0,0.0421221
628.0,0.0423802
630.0,0.0426316
632.0,0.042772
634.0,0.0428974
636.0,0.0430848
638.0,0.0433002
640.0,0.043468
642.0,0.0436485
644.0,0.0438807
646.0,0.044015
648.0,0.0442779
650.0,0.044464
652.0,0.0446073
654.0,0.0448051
656.0,0.0450882
658.0,0.0452222
660.0,0.0454155
662.0,0.045596
664.0,0.0457366
666.0,0.0459257
668.0,0.0461202
670.0,0.046325
672.0,0.0464961
674.0,0.0466714
676.0,0.0468903
678.0,0.0471029
680.0,0.0472433
682.0,0.047426
684.0,0.0476588
686.0,0.0480506
688.0,0.0484201
690.0,0.0485933
692.0,0.0486935
694.0,0.0488848
696.0,0.0490284
698.0,0.0491748
700.0,0.0493797
702.0,0.0495739
704.0,0.0497778
706.0,0.0500014
708.0,0.050193
710.0,0.050351
712.0,0.0506105
714.0,0.0508393
716.0,0.0512003
718.0,0.0517318
720.0,0.051882
722.0,0.0519426
724.0,0.0522274
726.0,0.0524629
728.0,0.0526403
730.0,0.0528066
732.0,0.0529539
734.0,0.0530855
736.0,0.0532697
738.0,0.0534438
740.0,0.0536696
742.0,0.0538364
744.0,0.0540551
746.0,0.0542789
748.0,0.0545531
750.0,0.0547512
752.0,0.0549532
754.0,0.0551723
756.0,0.055396
758.0,0.0556846
760.0,0.0565527
762.0,0.0575072
764.0,0.0575104
766.0,0.0570838
768.0,0.0569075
770.0,0.0569623
772.0,0.0571959
774.0,0.0573318
776.0,0.0575634
778.0,0.0577416
780.0,0.0579709
782.0,0.0581728
784.0,0.0583669
786.0,0.0585943
788.0,0.0588304
790.0,0.0589589
792.0,0.0591679
794.0,0.0593391
796.0,0.0595931
798.0,0.0597117
800.0,0.059923
802.0,0.0601298
804.0,0.0602867
806.0,0.0604459
808.0,0.0605931
810.0,0.0608796
812.0,0.0611546
814.0,0.061543
816.0,0.061772
818.0,0.061841
820.0,0.0618957
822.0,0.0620705
824.0,0.0621883
826.0,0.0622631
828.0,0.0623965
830.0,0.0624452
832.0,0.0626573
834.0,0.0626981
836.0,0.062791
838.0,0.0628427
840.0,0.0630271
842.0,0.063138
844.0,0.0631298
846.0,0.0633097
848.0,0.0634991
850.0,0.0636777
852.0,0.0637247
854.0,0.063844
856.0,0.0639888
858.0,0.0640688
860.0,0.0642365
862.0,0.0642634
864.0,0.0644744
866.0,0.0645773
868.0,0.0646467
870.0,0.0646443
872.0,0.064968
874.0,0.065062
876.0,0.0651459
878.0,0.0651609
880.0,0.0652326
882.0,0.0654695
884.0,0.0655206
886.0,0.0656431
888.0,0.0657729
890.0,0.0659311
892.0,0.0660446
894.0,0.0662867
896.0,0.0663775
898.0,0.0666063
900.0,0.0666366
902.0,0.0666849
904.0,0.0665592
906.0,0.0669214
908.0,0.066791
910.0,0.0671551
912.0,0.0671645
914.0,0.0669879
916.0,0.0671604
918.0,0.067287
920.0,0.0671371
922.0,0.0669006
924.0,0.0672679
926.0,0.0674913
928.0,0.0674646
930.0,0.0677292
932.0,0.0677368
934.0,0.0676846
936.0,0.0676783
938.0,0.0671185
940.0,0.0676876
942.0,0.0677364
944.0,0.0668626
946.0,0.0671313
948.0,0.0667342
950.0,0.0666984
952.0,0.0666001
954.0,0.0653582
956.0,0.0656001
958.0,0.0659566
960.0,0.0662467
962.0,0.0661041
964.0,0.0661229
966.0,0.0656851
968.0,0.0651511
970.0,0.0657678
972.0,0.0659872
974.0,0.0658873
976.0,0.0656656
978.0,0.0655116
980.0,0.0654511
982.0,0.0655452
984.0,0.0654623
986.0,0.0660435
988.0,0.0659378
990.0,0.0662458
992.0,0.0654177
994.0,0.0658039
996.0,0.0659763
998.0,0.0665503
1000.0,0.0664085
1002.0,0.0689942
1004.0,0.0696318
1006.0,0.0698926
1008.0,0.069667
1010.0,0.0694818
1012.0,0.0697868
1014.0,0.0700093
1016.0,0.0699456
1018.0,0.0703596
1020.0,0.070784
1022.0,0.0707215
1024.0,0.070696
1026.0,0.0710167
1028.0,0.0714809
1030.0,0.0714497
1032.0,0.0712148
1034.0,0.0712127
1036.0,0.071649
1038.0,0.0721932
1040.0,0.0720628
1042.0,0.072338
1044.0,0.0724057
1046.0,0.0726472
1048.0,0.0728793
1050.0,0.0730814
1052.0,0.0731372
1054.0,0.0734504
1056.0,0.073658
1058.0,0.073817
1060.0,0.0735756
1062.0,0.0734807
1064.0,0.0734378
1066.0,0.0737025
1068.0,0.0739112
1070.0,0.0739557
1072.0,0.0738642
1074.0,0.0738634
1076.0,0.0740624
1078.0,0.0742163
1080.0,0.0744515
1082.0,0.0742232
1084.0,0.0739492
1086.0,0.0741807
1088.0,0.0742732
1090.0,0.0745342
1092.0,0.0747225
1094.0,0.0745774
1096.0,0.0743678
1098.0,0.0745056
1100.0,0.0744117
1102.0,0.0744901
1104.0,0.0746613
1106.0,0.074533
1108.0,0.0742995
1110.0,0.0741429
1112.0,0.07424
1114.0,0.074582
1116.0,0.0750925
1118.0,0.0752434
1120.0,0.0750489
1122.0,0.0752078
1124.0,0.076089
1126.0,0.0762388
1128.0,0.0756991
1130.0,0.0747579
1132.0,0.0747628
1134.0,0.0742869
1136.0,0.0735061
1138.0,0.0725847
1140.0,0.0719681
1142.0,0.0718809
1144.0,0.0719268
1146.0,0.0710453
1148.0,0.0698557
1150.0,0.0688506
1152.0,0.0684052
1154.0,0.0680429
1156.0,0.0675996
1158.0,0.0669884
1160.0,0.0664191
1162.0,0.0660562
1164.0,0.0660206
1166.0,0.0660491
1168.0,0.0659312
1170.0,0.0659993
1172.0,0.0657513
1174.0,0.0656253
1176.0,0.0656305
1178.0,0.065366
1180.0,0.0653772
1182.0,0.0653865
1184.0,0.0653993
1186.0,0.0653312
1188.0,0.0653819
1190.0,0.0652896
1192.0,0.065293
1194.0,0.0652487
1196.0,0.0651897
1198.0,0.0651935
1200.0,0.0651397
1202.0,0.0652462
1204.0,0.0655138
1206.0,0.0656263
1208.0,0.0654136
1210.0,0.0653384
1212.0,0.065525
1214.0,0.0654891
1216.0,0.065495
1218.0,0.0657294
1220.0,0.0658514
1222.0,0.0657142
1224.0,0.0657701
1226.0,0.0658226
1228.0,0.0660125
1230.0,0.0660797
1232.0,0.0661901
1234.0,0.0663454
1236.0,0.0664868
1238.0,0.0665476
1240.0,0.0666328
1242.0,0.0668042
1244.0,0.0669295
1246.0,0.0669027
1248.0,0.0669584
1250.0,0.066988
1252.0,0.0670317
1254.0,0.0671538
1256.0,0.0673998
1258.0,0.0676387
1260.0,0.0677749
1262.0,0.067954
1264.0,0.0681348
1266.0,0.0681748
1268.0,0.0680749
1270.0,0.0679248
1272.0,0.0678032
1274.0,0.0678058
1276.0,0.0678349
1278.0,0.0679215
1280.0,0.0678112
1282.0,0.067527
1284.0,0.0674137
1286.0,0.0673901
1288.0,0.067428
1290.0,0.0673771
1292.0,0.0671841
1294.0,0.0669121
1296.0,0.0666509
1298.0,0.0666075
1300.0,0.0663309
1302.0,0.0660847
1304.0,0.0659108
1306.0,0.065569
1308.0,0.0653014
1310.0,0.065014
1312.0,0.0645323
1314.0,0.0642436
1316.0,0.0638464
1318.0,0.0634557
1320.0,0.0627894
1322.0,0.0622969
1324.0,0.0617904
1326.0,0.0613671
1328.0,0.0610062
1330.0,0.0603492
1332.0,0.0598022
1334.0,0.0595689
1336.0,0.0593484
1338.0,0.0588478
1340.0,0.0581717
1342.0,0.0577291
1344.0,0.0577288
1346.0,0.0579122
1348.0,0.0574197
1350.0,0.0576777
1352.0,0.0582583
1354.0,0.0560835
1356.0,0.0553416
1358.0,0.0592965
1360.0,0.0562195
1362.0,0.0278158
1364.0,0.0066657
1366.0,0.0
1368.0,0.0
1370.0,0.0569118
1372.0,0.100912
1374.0,0.0899649
1376.0,0.0741631
1378.0,0.050507
1380.0,0.033931
1382.0,0.0107095
1384.0,0.0
1386.0,0.0
1388.0,0.00180311
1390.0,0.0210951
1392.0,0.0360884
1394.0,0.0556367
1396.0,0.039221
1398.0,0.014146
1400.0,0.0148052
1402.0,0.0241289
1404.0,0.0254604
1406.0,0.0215445
1408.0,0.0227757
1410.0,0.0234693
1412.0,0.025491
1414.0,0.0260952
1416.0,0.0213297
1418.0,0.0181336
1420.0,0.018703
1422.0,0.0184936
1424.0,0.0173354
1426.0,0.0158922
1428.0,0.0152827
1430.0,0.0160697
1432.0,0.0157676
1434.0,0.0164014
1436.0,0.0164259
1438.0,0.0162111
1440.0,0.0151829
1442.0,0.0145521
1444.0,0.0134895
1446.0,0.0133503
1448.0,0.0139595
1450.0,0.0135864
1452.0,0.0130932
1454.0,0.0132746
1456.0,0.0132131
1458.0,0.0130517
1460.0,0.0129541
1462.0,0.0124712
1464.0,0.0126279
1466.0,0.0126767
1468.0,0.0125193
1470.0,0.0129925
1472.0,0.0130462
1474.0,0.0126453
1476.0,0.0126481
1478.0,0.0128517
1480.0,0.0129333
1482.0,0.0130832
1484.0,0.0130118
1486.0,0.0133301
1488.0,0.0137284
1490.0,0.0140417
1492.0,0.0137494
1494.0,0.0138759
1496.0,0.0145335
1498.0,0.0145938
1500.0,0.0147591
1502.0,0.0149196
1504.0,0.0151714
1506.0,0.015431
1508.0,0.0155895
1510.0,0.0160946
1512.0,0.0167571
1514.0,0.0170682
1516.0,0.0169858
1518.0,0.01719
1520.0,0.0176533
1522.0,0.0180754
1524.0,0.0184889
1526.0,0.0188358
1528.0,0.0192348
1530.0,0.0197811
1532.0,0.02014
1534.0,0.0204202
1536.0,0.0208055
1538.0,0.0213543
1540.0,0.0219158
1542.0,0.0222179
1544.0,0.0227391
1546.0,0.0231199
1548.0,0.0234548
1550.0,0.0237664
1552.0,0.0242862
1554.0,0.0248147
1556.0,0.0251518
1558.0,0.0257089
1560.0,0.0263035
1562.0,0.0268058
1564.0,0.026968
1566.0,0.0270014
1568.0,0.0275645
1570.0,0.0281147
1572.0,0.0283045
1574.0,0.0289421
1576.0,0.0298133
1578.0,0.0302192
1580.0,0.0303982
1582.0,0.0308176
1584.0,0.031355
1586.0,0.0318165
1588.0,0.0320717
1590.0,0.0320788
1592.0,0.0320967
1594.0,0.032424
1596.0,0.0328459
1598.0,0.0332049
1600.0,0.0334752
1602.0,0.03378
1604.0,0.0342814
1606.0,0.0345202
1608.0,0.0345358
1610.0,0.0350613
1612.0,0.0357097
1614.0,0.0360634
1616.0,0.0359282
1618.0,0.0358194
1620.0,0.036369
1622.0,0.0368008
1624.0,0.0366023
1626.0,0.0365771
1628.0,0.036946
1630.0,0.0374134
1632.0,0.0380072
1634.0,0.0380531
1636.0,0.0377376
1638.0,0.0375374
1640.0,0.0378568
1642.0,0.0386456
1644.0,0.0386689
1646.0,0.0384082
1648.0,0.0385662
1650.0,0.0389234
1652.0,0.0388973
1654.0,0.0385525
1656.0,0.0386386
1658.0,0.0389268
1660.0,0.039087
1662.0,0.0392248
1664.0,0.039828
1666.0,0.0399525
1668.0,0.0395774
1670.0,0.039728
1672.0,0.0397262
1674.0,0.040132
1676.0,0.0403706
1678.0,0.040426
1680.0,0.0406586
1682.0,0.0406469
1684.0,0.0406295
1686.0,0.0403412
1688.0,0.0404339
1690.0,0.0402404
1692.0,0.0403736
1694.0,0.0406535
1696.0,0.040718
1698.0,0.040854
1700.0,0.0409185
1702.0,0.0407902
1704.0,0.0405467
1706.0,0.0402862
1708.0,0.0402047
1710.0,0.0402666
1712.0,0.0399378
1714.0,0.0398745
1716.0,0.0401748
1718.0,0.0403032
1720.0,0.0398032
1722.0,0.0389781
1724.0,0.0389412
1726.0,0.0389935
1728.0,0.0387946
1730.0,0.0389328
1732.0,0.0387386
1734.0,0.0380849
1736.0,0.0384121
1738.0,0.0386078
1740.0,0.038385
1742.0,0.0377716
1744.0,0.037359
1746.0,0.0368702
1748.0,0.0362859
1750.0,0.0363305
1752.0,0.0361695
1754.0,0.0358195
1756.0,0.035448
1758.0,0.0350587
1760.0,0.0352567
1762.0,0.0354273
1764.0,0.0344039
1766.0,0.0335496
1768.0,0.0337776
1770.0,0.0336749
1772.0,0.0327082
1774.0,0.0322348
1776.0,0.0326316
1778.0,0.0331286
1780.0,0.0328804
1782.0,0.033279
1784.0,0.0336713
1786.0,0.0326949
1788.0,0.0332907
1790.0,0.0326409
1792.0,0.0330023
1794.0,0.0346739
1796.0,0.0344683
1798.0,0.0346917
1800.0,0.0329861
1802.0,0.0403056
1804.0,0.0449248
1806.0,0.0425843
1808.0,0.0434978
1810.0,0.0462478
1812.0,0.0383402
1814.0,0.0360471
1816.0,0.0376533
1818.0,0.0553563
1820.0,0.0593531
1822.0,0.0541015
1824.0,0.0454333
1826.0,0.0376295
1828.0,0.0157821
1830.0,0.0378296
1832.0,0.0789078
1834.0,0.147863
1836.0,0.0
1838.0,0.0
1840.0,0.0642292
1842.0,0.347544
1844.0,1.0
1846.0,0.0
1848.0,0.0
1850.0,0.0
1852.0,0.0
1854.0,0.0
1856.0,0.0
1858.0,0.0
1860.0,0.242083
1862.0,0.0
1864.0,0.0
1866.0,0.174735
1868.0,0.361501
1870.0,0.329488
1872.0,0.431789
1874.0,0.36795
1876.0,0.34417
1878.0,0.300009
1880.0,0.0643943
1882.0,0.0
1884.0,0.0265258
1886.0,0.0856967
1888.0,0.0856656
1890.0,0.0868436
1892.0,0.0506098
1894.0,0.0
1896.0,0.0
1898.0,0.0
1900.0,0.0
1902.0,1.0
1904.0,0.0
1906.0,0.0
1908.0,0.0
1910.0,0.0
1912.0,0.192378
1914.0,0.137963
1916.0,0.0860325
1918.0,0.00877251
1920.0,0.0199384
1922.0,0.0325913
1924.0,0.0648237
1926.0,0.0616566
1928.0,0.03394
1930.0,0.00870703
1932.0,0.0
1934.0,0.0
1936.0,0.0230795
1938.0,0.0197785
1940.0,0.0103867
1942.0,0.00895903
1944.0,0.0152009
1946.0,0.0182211
1948.0,0.0189345
1950.0,0.0116415
1952.0,0.00464295
1954.0,0.0
1956.0,0.00648825
1958.0,0.0
1960.0,0.0
1962.0,0.00676005
1964.0,0.0059205
1966.0,0.00681323
1968.0,0.00713147
1970.0,0.00945509
1972.0,0.0089638
1974.0,0.00857665
1976.0,0.00736207
1978.0,0.0072745
1980.0,0.00711207
1982.0,0.0066099
1984.0,0.00604892
1986.0,0.00511873
1988.0,0.00542752
1990.0,0.00539685
1992.0,0.00578776
1994.0,0.00409484
1996.0,0.0050041
1998.0,0.00838124
2000.0,0.00672126
2002.0,0.00215496
2004.0,0.0
2006.0,0.0
2008.0,0.00167405
2010.0,0.0116244
2012.0,0.0211907
2014.0,0.0211039
2016.0,0.0193859
2018.0,0.00926505
2020.0,0.00745086
2022.0,0.0105578
2024.0,0.0123562
2026.0,0.0105116
2028.0,0.00713279
2030.0,0.0063027
2032.0,0.00684282
2034.0,0.00825182
2036.0,0.00774523
2038.0,0.00651688
2040.0,0.00761593
2042.0,0.00802048
2044.0,0.00775523
2046.0,0.00754357
2048.0,0.00796558
2050.0,0.00873544
2052.0,0.0116692
2054.0,0.0139573
2056.0,0.0138703
2058.0,0.0122052
2060.0,0.00973078
2062.0,0.00906945
2064.0,0.0105651
2066.0,0.0134695
2068.0,0.0116625
2070.0,0.0105055
2072.0,0.0105926
2074.0,0.00891638
2076.0,0.00816897
2078.0,0.00836702
2080.0,0.00968382
2082.0,0.00951044
2084.0,0.00806402
2086.0,0.00789539
2088.0,0.00808329
2090.0,0.00845817
2092.0,0.00928733
2094.0,0.00957659
2096.0,0.00930165
2098.0,0.00911379
2100.0,0.0102811
2102.0,0.0121645
2104.0,0.0116223
2106.0,0.0105649
2108.0,0.0105681
2110.0,0.011742
2112.0,0.0127432
2114.0,0.0118528
2116.0,0.0107503
2118.0,0.0113781
2120.0,0.0131709
2122.0,0.0135737
2124.0,0.0136399
2126.0,0.0146799
2128.0,0.0144284
2130.0,0.0133934
2132.0,0.0132883
2134.0,0.0135557
2136.0,0.0135046
2138.0,0.0132096
2140.0,0.0148218
2142.0,0.0174082
2144.0,0.0176346
2146.0,0.0172668
2148.0,0.0165087
2150.0,0.0164345
2152.0,0.0162918
2154.0,0.016475
2156.0,0.0146943
2158.0,0.0136566
2160.0,0.0135293
2162.0,0.014334
2164.0,0.0157431
2166.0,0.0154485
2168.0,0.0150136
2170.0,0.0151898
2172.0,0.0165946
2174.0,0.0163862
2176.0,0.0164219
2178.0,0.016701
2180.0,0.0159881
2182.0,0.0156358
2184.0,0.0168329
2186.0,0.0184679
2188.0,0.0187075
2190.0,0.0178587
2192.0,0.0167906
2194.0,0.0178356
2196.0,0.0174403
2198.0,0.0173219
2200.0,0.0161733
2202.0,0.0150643
2204.0,0.015104
2206.0,0.0145529
2208.0,0.0147202
2210.0,0.0157588
2212.0,0.0173539
2214.0,0.0171721
2216.0,0.0161413
2218.0,0.0163217
2220.0,0.0172575
2222.0,0.0179838
2224.0,0.0183724
2226.0,0.0181991
2228.0,0.0172191
2230.0,0.0162537
2232.0,0.0180828
2234.0,0.0177105
2236.0,0.0148923
2238.0,0.0134953
2240.0,0.0148941
2242.0,0.0183104
2244.0,0.0191168
2246.0,0.0170673
2248.0,0.0167987
2250.0,0.0182593
2252.0,0.0184783
2254.0,0.0164098
2256.0,0.0146276
2258.0,0.0141456
2260.0,0.0147044
2262.0,0.01432
2264.0,0.0139284
2266.0,0.0153037
2268.0,0.0163802
2270.0,0.0167487
2272.0,0.0133758
2274.0,0.010664
2276.0,0.0122171
2278.0,0.0141909
2280.0,0.0128405
2282.0,0.0110596
2284.0,0.0107091
2286.0,0.0108992
2288.0,0.0115418
2290.0,0.0132548
2292.0,0.0125348
2294.0,0.0118605
2296.0,0.0128527
2298.0,0.0136957
2300.0,0.0150269
2302.0,0.0144742
2304.0,0.0126631
2306.0,0.0116854
2308.0,0.0101708
2310.0,0.00901116
2312.0,0.00909564
2314.0,0.00948989
2316.0,0.0104345
2318.0,0.0125972
2320.0,0.0145914
2322.0,0.0150134
2324.0,0.0135413
2326.0,0.010706
2328.0,0.0116183
2330.0,0.0106725
2332.0,0.0114915
2334.0,0.0126084
2336.0,0.0141377
2338.0,0.0147385
2340.0,0.013
2342.0,0.0105209
2344.0,0.0100785
2346.0,0.00886767
2348.0,0.00771712
2350.0,0.0100264
2352.0,0.00976121
2354.0,0.00883438
2356.0,0.013963
2358.0,0.0161037
2360.0,0.0145708
2362.0,0.0131132
2364.0,0.0117561
2366.0,0.00710448
2368.0,0.00652057
2370.0,0.00794143
2372.0,0.00778555
2374.0,0.00910039
2376.0,0.00591819
2378.0,0.000188768
2380.0,0.00170939
2382.0,0.00411913
2384.0,0.00690569
2386.0,0.00982732
2388.0,0.00993682
2390.0,0.0151048
2392.0,0.0122362
2394.0,0.0118971
2396.0,0.0122555
2398.0,0.0112112
2400.0,0.00786137
2402.0,0.00157661
2404.0,0.00899178
2406.0,0.0175743
2408.0,0.0141613
2410.0,0.011456
2412.0,0.0134295
2414.0,0.0167709
2416.0,0.00140904
2418.0,0.0
2420.0,0.0
2422.0,0.0
2424.0,0.0
2426.0,0.00613487
2428.0,0.00289159
2430.0,0.0
2432.0,0.0
2434.0,0.00831777
2436.0,0.0107073
2438.0,0.0102316
2440.0,0.00703724
2442.0,0.00199283
2444.0,0.00361246
2446.0,0.00121258
2448.0,0.0
2450.0,0.0
2452.0,0.00954907
2454.0,0.0211458
2456.0,0.00909253
2458.0,0.0
2460.0,0.0148477
2462.0,0.015654
2464.0,0.0
2466.0,0.0
2468.0,0.00646941
2470.0,0.0
2472.0,0.0
2474.0,0.0
2476.0,0.0
2478.0,0.0
2480.0,0.0
2482.0,0.0606665
2484.0,0.141153
2486.0,0.0
2488.0,0.0318185
2490.0,0.212686
2492.0,0.0665302
2494.0,0.0
2496.0,0.0
2498.0,0.0453324
2500.0,0.0