File: data/spectra_ascii/AsphaltNassPfuetzen___corthum00445.txt
Wavelength (nm),Reflectance
350.0,0.0253617
352.0,0.0247075
354.0,0.0259578
356.0,0.0245872
358.0,0.0253798
360.0,0.0249605
362.0,0.0245597
364.0,0.0245511
366.0,0.0244929
368.0,0.0246136
370.0,0.0247386
372.0,0.0244791
374.0,0.0248748
376.0,0.0245001
378.0,0.0243126
380.0,0.0242337
382.0,0.024475
384.0,0.0242535
386.0,0.0241533
388.0,0.0243794
390.0,0.0244111
392.0,0.0245507
394.0,0.0244392
396.0,0.0245149
398.0,0.024646
400.0,0.0243098
402.0,0.024353
404.0,0.0242967
406.0,0.0244936
408.0,0.0243812
410.0,0.0245422
412.0,0.0245481
414.0,0.0245915
416.0,0.0246858
418.0,0.0246867
420.0,0.0246178
422.0,0.0246717
424.0,0.0247014
426.0,0.0249176
428.0,0.0249843
430.0,0.025002
432.0,0.0251085
434.0,0.025149
436.0,0.0253208
438.0,0.0253982
440.0,0.0254484
442.0,0.0255214
444.0,0.0255804
446.0,0.0256876
448.0,0.0257375
450.0,0.0257805
452.0,0.0257793
454.0,0.0258756
456.0,0.0260374
458.0,0.0260019
460.0,0.0261048
462.0,0.0261898
464.0,0.0262651
466.0,0.0263044
468.0,0.0263895
470.0,0.0265076
472.0,0.0264938
474.0,0.0266513
476.0,0.0267414
478.0,0.0268057
480.0,0.0268877
482.0,0.0269175
484.0,0.0270127
486.0,0.0271685
488.0,0.0272744
490.0,0.0273237
492.0,0.02748
494.0,0.0275975
496.0,0.0276541
498.0,0.0277961
500.0,0.0279444
502.0,0.0281012
504.0,0.0281945
506.0,0.0283169
508.0,0.0284679
510.0,0.0285701
512.0,0.0287225
514.0,0.028938
516.0,0.0289937
518.0,0.029168
520.0,0.0293193
522.0,0.0294433
524.0,0.0296006
526.0,0.0297274
528.0,0.0299457
530.0,0.0301241
532.0,0.0303188
534.0,0.0305179
536.0,0.0307603
538.0,0.0309278
540.0,0.0311954
542.0,0.0314243
544.0,0.0317083
546.0,0.0319099
548.0,0.0320785
550.0,0.0323765
552.0,0.0326715
554.0,0.0329855
556.0,0.0333009
558.0,0.0335894
560.0,0.0338973
562.0,0.034146
564.0,0.034428
566.0,0.0347326
568.0,0.0349533
570.0,0.0353032
572.0,0.0356368
574.0,0.035894
576.0,0.0361625
578.0,0.0364105
580.0,0.0366341
582.0,0.0368206
584.0,0.0371191
586.0,0.0373877
588.0,0.0377052
590.0,0.0378997
592.0,0.0381086
594.0,0.038328
596.0,0.0385336
598.0,0.0386562
600.0,0.0388722
602.0,0.0390951
604.0,0.039289
606.0,0.0394469
608.0,0.0396126
610.0,0.0397711
612.0,0.0399861
614.0,0.0401739
616.0,0.0403553
618.0,0.0405516
620.0,0.0407278
622.0,0.0409157
624.0,0.0411243
626.0,0.0412893
628.0,0.0415563
630.0,0.0417524
632.0,0.0418916
634.0,0.0420306
636.0,0.0421562
638.0,0.0423994
640.0,0.0425697
642.0,0.0427725
644.0,0.0429408
646.0,0.0431005
648.0,0.0433224
650.0,0.0435428
652.0,0.0436694
654.0,0.0438199
656.0,0.0440187
658.0,0.0441491
660.0,0.0443953
662.0,0.0446255
664.0,0.044655
666.0,0.0448936
668.0,0.0450777
670.0,0.0453081
672.0,0.0454578
674.0,0.0456433
676.0,0.0458094
678.0,0.0460003
680.0,0.0461494
682.0,0.0463644
684.0,0.0465607
686.0,0.0469216
688.0,0.0473162
690.0,0.0474464
692.0,0.047533
694.0,0.0477532
696.0,0.0479015
698.0,0.0480063
700.0,0.0481937
702.0,0.0483752
704.0,0.0485747
706.0,0.0487308
708.0,0.0489364
710.0,0.0491111
712.0,0.0493098
714.0,0.0495523
716.0,0.0499328
718.0,0.0504767
720.0,0.0506367
722.0,0.0506351
724.0,0.0509804
726.0,0.0511548
728.0,0.0513382
730.0,0.0514758
732.0,0.0515678
734.0,0.0517262
736.0,0.051886
738.0,0.0520486
740.0,0.0522823
742.0,0.0524431
744.0,0.0526754
746.0,0.0528527
748.0,0.0531123
750.0,0.0533237
752.0,0.0535341
754.0,0.0537301
756.0,0.0539503
758.0,0.054197
760.0,0.0550402
762.0,0.0559638
764.0,0.055879
766.0,0.0555659
768.0,0.0553201
770.0,0.0553793
772.0,0.05557
774.0,0.0557372
776.0,0.0559853
778.0,0.0561545
780.0,0.0563181
782.0,0.0565316
784.0,0.0567058
786.0,0.0569304
788.0,0.0572078
790.0,0.0572975
792.0,0.0574649
794.0,0.0576562
796.0,0.0578635
798.0,0.0580089
800.0,0.0581958
802.0,0.0584557
804.0,0.0585867
806.0,0.0586782
808.0,0.0588439
810.0,0.0590643
812.0,0.0593172
814.0,0.0597558
816.0,0.059948
818.0,0.0600128
820.0,0.0599863
822.0,0.0602881
824.0,0.0603057
826.0,0.0603646
828.0,0.0606203
830.0,0.0605883
832.0,0.0607335
834.0,0.0608157
836.0,0.0608874
838.0,0.0610286
840.0,0.0610431
842.0,0.061182
844.0,0.0612627
846.0,0.0614126
848.0,0.0615671
850.0,0.0616635
852.0,0.0617673
854.0,0.0619729
856.0,0.0620324
858.0,0.0621177
860.0,0.0622752
862.0,0.062236
864.0,0.0624285
866.0,0.0626419
868.0,0.0626612
870.0,0.0627437
872.0,0.0628904
874.0,0.0629866
876.0,0.0631324
878.0,0.0631498
880.0,0.0632003
882.0,0.0633688
884.0,0.0634537
886.0,0.0636125
888.0,0.0637058
890.0,0.0638408
892.0,0.064009
894.0,0.0640251
896.0,0.064291
898.0,0.0643727
900.0,0.0644849
902.0,0.0644362
904.0,0.0644425
906.0,0.0646745
908.0,0.0647082
910.0,0.064932
912.0,0.0651868
914.0,0.0651866
916.0,0.0650698
918.0,0.0651747
920.0,0.0650116
922.0,0.065079
924.0,0.0652389
926.0,0.0653403
928.0,0.0653543
930.0,0.0658141
932.0,0.0655927
934.0,0.0659233
936.0,0.0660119
938.0,0.0647538
940.0,0.0650889
942.0,0.06538
944.0,0.0652457
946.0,0.0647611
948.0,0.064418
950.0,0.0645228
952.0,0.0653702
954.0,0.0637663
956.0,0.0640684
958.0,0.0646426
960.0,0.0640397
962.0,0.0642895
964.0,0.0645453
966.0,0.0645195
968.0,0.0638272
970.0,0.0639222
972.0,0.0641584
974.0,0.0645074
976.0,0.06402
978.0,0.0642568
980.0,0.0640586
982.0,0.0643113
984.0,0.0638183
986.0,0.0642987
988.0,0.0639551
990.0,0.0643392
992.0,0.0645195
994.0,0.0646027
996.0,0.0639625
998.0,0.0646126
1000.0,0.064418
1002.0,0.0665625
1004.0,0.0671178
1006.0,0.06757
1008.0,0.0676041
1010.0,0.0675499
1012.0,0.0675014
1014.0,0.068078
1016.0,0.0682997
1018.0,0.0682882
1020.0,0.068376
1022.0,0.0685322
1024.0,0.0686931
1026.0,0.0689736
1028.0,0.0691677
1030.0,0.0692094
1032.0,0.0696197
1034.0,0.0699435
1036.0,0.0701183
1038.0,0.070139
1040.0,0.0696327
1042.0,0.0696557
1044.0,0.070093
1046.0,0.0703459
1048.0,0.0704826
1050.0,0.070579
1052.0,0.070558
1054.0,0.0711663
1056.0,0.0713696
1058.0,0.0709661
1060.0,0.0709377
1062.0,0.0709714
1064.0,0.0709173
1066.0,0.0708455
1068.0,0.0709926
1070.0,0.0712282
1072.0,0.0714477
1074.0,0.0714581
1076.0,0.0715765
1078.0,0.0718177
1080.0,0.0717651
1082.0,0.0717278
1084.0,0.0718878
1086.0,0.0716701
1088.0,0.0716992
1090.0,0.07183
1092.0,0.0719255
1094.0,0.0719335
1096.0,0.0721584
1098.0,0.0722619
1100.0,0.0722053
1102.0,0.0724039
1104.0,0.0724954
1106.0,0.0721025
1108.0,0.0720101
1110.0,0.0722042
1112.0,0.0724608
1114.0,0.0727161
1116.0,0.0729862
1118.0,0.0733597
1120.0,0.0732706
1122.0,0.073144
1124.0,0.0731795
1126.0,0.0732509
1128.0,0.0730354
1130.0,0.0722581
1132.0,0.0722326
1134.0,0.0725413
1136.0,0.07198
1138.0,0.0709222
1140.0,0.0700823
1142.0,0.0698602
1144.0,0.0695978
1146.0,0.069456
1148.0,0.0691804
1150.0,0.0682713
1152.0,0.0671821
1154.0,0.0666211
1156.0,0.0663467
1158.0,0.0659821
1160.0,0.0656265
1162.0,0.0656026
1164.0,0.0655968
1166.0,0.065306
1168.0,0.0652125
1170.0,0.0650213
1172.0,0.0649323
1174.0,0.0650436
1176.0,0.0650104
1178.0,0.0648507
1180.0,0.0648277
1182.0,0.0647763
1184.0,0.0648989
1186.0,0.0648796
1188.0,0.0647329
1190.0,0.064636
1192.0,0.0647713
1194.0,0.0646312
1196.0,0.0646504
1198.0,0.0644704
1200.0,0.0645012
1202.0,0.0645235
1204.0,0.0643437
1206.0,0.0646105
1208.0,0.0647906
1210.0,0.0646422
1212.0,0.0647568
1214.0,0.0648957
1216.0,0.0649333
1218.0,0.0648524
1220.0,0.0651181
1222.0,0.0654358
1224.0,0.0655225
1226.0,0.0653361
1228.0,0.0652892
1230.0,0.0655663
1232.0,0.0656288
1234.0,0.0655161
1236.0,0.065571
1238.0,0.0656903
1240.0,0.0657581
1242.0,0.0658886
1244.0,0.0658873
1246.0,0.0659555
1248.0,0.066218
1250.0,0.0663587
1252.0,0.0663839
1254.0,0.0665759
1256.0,0.0668129
1258.0,0.0670822
1260.0,0.0672045
1262.0,0.0673183
1264.0,0.0674371
1266.0,0.0674029
1268.0,0.0673654
1270.0,0.0671582
1272.0,0.0672459
1274.0,0.0673071
1276.0,0.0673545
1278.0,0.0673213
1280.0,0.0672337
1282.0,0.0671506
1284.0,0.0670599
1286.0,0.0668361
1288.0,0.0667573
1290.0,0.0667735
1292.0,0.0665763
1294.0,0.0663127
1296.0,0.0660976
1298.0,0.0660458
1300.0,0.0660047
1302.0,0.0656998
1304.0,0.0655534
1306.0,0.0652793
1308.0,0.0650371
1310.0,0.0649279
1312.0,0.0645944
1314.0,0.0642028
1316.0,0.0637078
1318.0,0.0632386
1320.0,0.0627364
1322.0,0.062344
1324.0,0.0621308
1326.0,0.0618535
1328.0,0.0612601
1330.0,0.0609138
1332.0,0.0606778
1334.0,0.0602578
1336.0,0.0597117
1338.0,0.0590511
1340.0,0.0585188
1342.0,0.058364
1344.0,0.0584754
1346.0,0.0582588
1348.0,0.058314
1350.0,0.0586214
1352.0,0.0594562
1354.0,0.0603565
1356.0,0.0610867
1358.0,0.056842
1360.0,0.0342031
1362.0,0.0
1364.0,0.0188986
1366.0,0.0469101
1368.0,0.0809957
1370.0,0.0163842
1372.0,0.027989
1374.0,0.0234985
1376.0,0.0515272
1378.0,0.0781807
1380.0,0.0796618
1382.0,0.0845365
1384.0,0.0618142
1386.0,0.0412733
1388.0,0.0129184
1390.0,0.00736772
1392.0,0.0165857
1394.0,0.0198166
1396.0,0.0166803
1398.0,0.0215057
1400.0,0.0260524
1402.0,0.032061
1404.0,0.0311583
1406.0,0.0228972
1408.0,0.0172658
1410.0,0.0156177
1412.0,0.0227124
1414.0,0.0221058
1416.0,0.0174907
1418.0,0.0195821
1420.0,0.0214024
1422.0,0.0193855
1424.0,0.019205
1426.0,0.0206112
1428.0,0.0205694
1430.0,0.0198329
1432.0,0.018653
1434.0,0.0176713
1436.0,0.0172074
1438.0,0.017415
1440.0,0.0175471
1442.0,0.0176758
1444.0,0.0178791
1446.0,0.0173097
1448.0,0.0160307
1450.0,0.0159253
1452.0,0.0159395
1454.0,0.0157455
1456.0,0.0154367
1458.0,0.0148475
1460.0,0.0146433
1462.0,0.0149639
1464.0,0.0152222
1466.0,0.0157839
1468.0,0.015879
1470.0,0.0149697
1472.0,0.0145369
1474.0,0.0148274
1476.0,0.0153079
1478.0,0.0153787
1480.0,0.0159824
1482.0,0.0161863
1484.0,0.0162097
1486.0,0.0160299
1488.0,0.0157789
1490.0,0.0158029
1492.0,0.0159066
1494.0,0.0162607
1496.0,0.0168176
1498.0,0.0170166
1500.0,0.017104
1502.0,0.017217
1504.0,0.0176521
1506.0,0.0181078
1508.0,0.0184965
1510.0,0.0189385
1512.0,0.0193117
1514.0,0.0196591
1516.0,0.0199763
1518.0,0.0201979
1520.0,0.0204204
1522.0,0.020992
1524.0,0.0215034
1526.0,0.021805
1528.0,0.022287
1530.0,0.0229642
1532.0,0.0234829
1534.0,0.0238936
1536.0,0.0241819
1538.0,0.0245218
1540.0,0.0252373
1542.0,0.0257614
1544.0,0.0259963
1546.0,0.0260642
1548.0,0.0264855
1550.0,0.0271229
1552.0,0.0276024
1554.0,0.0280634
1556.0,0.0285044
1558.0,0.0287991
1560.0,0.0289845
1562.0,0.0293459
1564.0,0.0298283
1566.0,0.0304229
1568.0,0.0307882
1570.0,0.0313294
1572.0,0.0318442
1574.0,0.0322728
1576.0,0.0329133
1578.0,0.0333121
1580.0,0.033747
1582.0,0.0344015
1584.0,0.0345532
1586.0,0.0347873
1588.0,0.0350788
1590.0,0.0351684
1592.0,0.0353853
1594.0,0.0356939
1596.0,0.0359859
1598.0,0.0364226
1600.0,0.0372303
1602.0,0.0374866
1604.0,0.0374381
1606.0,0.0379181
1608.0,0.0381359
1610.0,0.0383678
1612.0,0.0390639
1614.0,0.0393092
1616.0,0.0391626
1618.0,0.039124
1620.0,0.0392631
1622.0,0.0394168
1624.0,0.0395248
1626.0,0.0396629
1628.0,0.0399508
1630.0,0.0402848
1632.0,0.0407308
1634.0,0.0410652
1636.0,0.041123
1638.0,0.0412215
1640.0,0.0415245
1642.0,0.0418484
1644.0,0.0417455
1646.0,0.0416261
1648.0,0.0418441
1650.0,0.0421673
1652.0,0.0423168
1654.0,0.0424027
1656.0,0.0423803
1658.0,0.042553
1660.0,0.0428675
1662.0,0.0428584
1664.0,0.0429061
1666.0,0.0430336
1668.0,0.0430873
1670.0,0.0429723
1672.0,0.0428783
1674.0,0.0428745
1676.0,0.0430776
1678.0,0.043579
1680.0,0.0438172
1682.0,0.0440997
1684.0,0.044096
1686.0,0.0440543
1688.0,0.044275
1690.0,0.0446221
1692.0,0.0447472
1694.0,0.0444412
1696.0,0.0443506
1698.0,0.044302
1700.0,0.0442777
1702.0,0.0439024
1704.0,0.0437431
1706.0,0.0436312
1708.0,0.0432555
1710.0,0.0431795
1712.0,0.0435075
1714.0,0.0435847
1716.0,0.0435257
1718.0,0.0431044
1720.0,0.0428776
1722.0,0.0428308
1724.0,0.0426842
1726.0,0.0423441
1728.0,0.0421556
1730.0,0.0423558
1732.0,0.0418064
1734.0,0.0413478
1736.0,0.0413793
1738.0,0.0409281
1740.0,0.0409027
1742.0,0.0409575
1744.0,0.0404165
1746.0,0.040263
1748.0,0.040104
1750.0,0.0398191
1752.0,0.0393384
1754.0,0.038792
1756.0,0.0387787
1758.0,0.0385135
1760.0,0.0378903
1762.0,0.0373364
1764.0,0.0372119
1766.0,0.0378109
1768.0,0.0374264
1770.0,0.0372488
1772.0,0.0375411
1774.0,0.0370337
1776.0,0.036002
1778.0,0.0360956
1780.0,0.036558
1782.0,0.0362683
1784.0,0.0358271
1786.0,0.0350795
1788.0,0.0352953
1790.0,0.0364472
1792.0,0.0374198
1794.0,0.0379395
1796.0,0.0361481
1798.0,0.0354648
1800.0,0.0385973
1802.0,0.0481127
1804.0,0.0479707
1806.0,0.0507896
1808.0,0.0498368
1810.0,0.0524796
1812.0,0.0598425
1814.0,0.060777
1816.0,0.0644592
1818.0,0.0760956
1820.0,0.100674
1822.0,0.0961658
1824.0,0.060769
1826.0,0.0927442
1828.0,0.184264
1830.0,0.19442
1832.0,0.146046
1834.0,0.154837
1836.0,0.0
1838.0,0.0
1840.0,0.0
1842.0,0.0
1844.0,0.0
1846.0,0.0
1848.0,0.0
1850.0,0.0
1852.0,0.367711
1854.0,0.0
1856.0,0.0
1858.0,0.0
1860.0,0.32789
1862.0,0.285447
1864.0,0.0134392
1866.0,0.196871
1868.0,0.559645
1870.0,0.29867
1872.0,0.0125039
1874.0,0.158659
1876.0,0.236595
1878.0,0.232888
1880.0,0.1664
1882.0,0.215006
1884.0,0.283899
1886.0,0.159231
1888.0,0.127319
1890.0,0.111317
1892.0,0.0538307
1894.0,0.100749
1896.0,0.156857
1898.0,0.245178
1900.0,0.535196
1902.0,0.0
1904.0,1.0
1906.0,0.624569
1908.0,0.362564
1910.0,0.343698
1912.0,0.329792
1914.0,0.122179
1916.0,0.0908527
1918.0,0.0988469
1920.0,0.121838
1922.0,0.0806076
1924.0,0.0673168
1926.0,0.0169656
1928.0,0.0
1930.0,0.0205238
1932.0,0.0488017
1934.0,0.0337868
1936.0,0.0285928
1938.0,0.0270168
1940.0,0.0242811
1942.0,0.0228806
1944.0,0.0218191
1946.0,0.0261729
1948.0,0.0222283
1950.0,0.0164843
1952.0,0.0155676
1954.0,0.0133198
1956.0,0.0152577
1958.0,0.0201761
1960.0,0.0130068
1962.0,0.0103608
1964.0,0.0103646
1966.0,0.0135543
1968.0,0.0135258
1970.0,0.0105084
1972.0,0.00847844
1974.0,0.00952912
1976.0,0.0107259
1978.0,0.00947222
1980.0,0.00758835
1982.0,0.00650109
1984.0,0.00696949
1986.0,0.00743158
1988.0,0.00685551
1990.0,0.00708153
1992.0,0.00633672
1994.0,0.00670021
1996.0,0.00768133
1998.0,0.00679299
2000.0,0.00795065
2002.0,0.00868627
2004.0,0.00691539
2006.0,0.0221972
2008.0,0.0341163
2010.0,0.0246961
2012.0,0.010544
2014.0,0.0021333
2016.0,0.0
2018.0,0.00135829
2020.0,0.00653889
2022.0,0.0104996
2024.0,0.00889572
2026.0,0.00709342
2028.0,0.0088022
2030.0,0.008552
2032.0,0.00816806
2034.0,0.00924871
2036.0,0.0104098
2038.0,0.0109346
2040.0,0.0103582
2042.0,0.00915924
2044.0,0.00947301
2046.0,0.00975572
2048.0,0.0113738
2050.0,0.0116078
2052.0,0.0104808
2054.0,0.0104965
2056.0,0.011175
2058.0,0.0105625
2060.0,0.0107127
2062.0,0.0117776
2064.0,0.0118384
2066.0,0.0119993
2068.0,0.0107459
2070.0,0.0099049
2072.0,0.0117951
2074.0,0.0130476
2076.0,0.0125047
2078.0,0.0112962
2080.0,0.0115493
2082.0,0.0126378
2084.0,0.0135209
2086.0,0.0146581
2088.0,0.0138368
2090.0,0.013079
2092.0,0.0130961
2094.0,0.0138872
2096.0,0.0137796
2098.0,0.0142125
2100.0,0.0153574
2102.0,0.0163618
2104.0,0.016414
2106.0,0.0170411
2108.0,0.0173342
2110.0,0.0174236
2112.0,0.0171065
2114.0,0.0165989
2116.0,0.0174872
2118.0,0.016432
2120.0,0.0145782
2122.0,0.0148958
2124.0,0.0157565
2126.0,0.0168674
2128.0,0.0173764
2130.0,0.0174796
2132.0,0.01804
2134.0,0.0184031
2136.0,0.0192281
2138.0,0.0211069
2140.0,0.0211282
2142.0,0.0195417
2144.0,0.0180075
2146.0,0.0180925
2148.0,0.0185356
2150.0,0.0179706
2152.0,0.0175541
2154.0,0.0191649
2156.0,0.0206601
2158.0,0.0210436
2160.0,0.0201844
2162.0,0.0205461
2164.0,0.0209621
2166.0,0.0203876
2168.0,0.0209314
2170.0,0.0216749
2172.0,0.0220517
2174.0,0.0218852
2176.0,0.0200426
2178.0,0.0188572
2180.0,0.0180741
2182.0,0.0181749
2184.0,0.0194832
2186.0,0.0195045
2188.0,0.018964
2190.0,0.0177195
2192.0,0.0166633
2194.0,0.0184074
2196.0,0.0217695
2198.0,0.0230494
2200.0,0.0222961
2202.0,0.0231298
2204.0,0.0254928
2206.0,0.0248014
2208.0,0.0223216
2210.0,0.0223477
2212.0,0.023245
2214.0,0.022923
2216.0,0.0209145
2218.0,0.0188951
2220.0,0.0182061
2222.0,0.0182092
2224.0,0.0183521
2226.0,0.0196606
2228.0,0.0197952
2230.0,0.0214849
2232.0,0.0219952
2234.0,0.0209705
2236.0,0.0219949
2238.0,0.022225
2240.0,0.0222435
2242.0,0.0227262
2244.0,0.0238988
2246.0,0.0221114
2248.0,0.0207253
2250.0,0.0211258
2252.0,0.0183522
2254.0,0.018991
2256.0,0.0213478
2258.0,0.0219812
2260.0,0.0217832
2262.0,0.021992
2264.0,0.0201042
2266.0,0.0190618
2268.0,0.0193976
2270.0,0.0218517
2272.0,0.0227395
2274.0,0.02069
2276.0,0.0204437
2278.0,0.0203711
2280.0,0.0198829
2282.0,0.0205201
2284.0,0.0215245
2286.0,0.0199785
2288.0,0.0170773
2290.0,0.0147445
2292.0,0.0164271
2294.0,0.0205767
2296.0,0.0205091
2298.0,0.0185561
2300.0,0.0182681
2302.0,0.01706
2304.0,0.015656
2306.0,0.016051
2308.0,0.0168423
2310.0,0.016308
2312.0,0.0143864
2314.0,0.0132753
2316.0,0.0123746
2318.0,0.0147238
2320.0,0.0142539
2322.0,0.0115134
2324.0,0.011845
2326.0,0.0131692
2328.0,0.0122305
2330.0,0.0138432
2332.0,0.0168242
2334.0,0.0164117
2336.0,0.0149193
2338.0,0.0170076
2340.0,0.0199071
2342.0,0.0211734
2344.0,0.0175384
2346.0,0.0178407
2348.0,0.0164377
2350.0,0.0163444
2352.0,0.0194588
2354.0,0.0179097
2356.0,0.0117567
2358.0,0.0100232
2360.0,0.0139792
2362.0,0.0141899
2364.0,0.0157133
2366.0,0.0199694
2368.0,0.0208883
2370.0,0.0188072
2372.0,0.0155589
2374.0,0.0128348
2376.0,0.0121025
2378.0,0.00938929
2380.0,0.00700699
2382.0,0.00944874
2384.0,0.0139771
2386.0,0.0161404
2388.0,0.0138702
2390.0,0.0181283
2392.0,0.0190143
2394.0,0.0106939
2396.0,0.014758
2398.0,0.0180993
2400.0,0.0149683
2402.0,0.0188927
2404.0,0.0176423
2406.0,0.0123143
2408.0,0.00614064
2410.0,0.00967018
2412.0,0.0131334
2414.0,0.0146106
2416.0,0.0135414
2418.0,0.0121943
2420.0,0.0145789
2422.0,0.0296513
2424.0,0.0229554
2426.0,0.00550968
2428.0,0.0
2430.0,0.0
2432.0,0.00602629
2434.0,0.022316
2436.0,0.020336
2438.0,0.00650654
2440.0,0.00511172
2442.0,0.0061235
2444.0,0.00127
2446.0,0.0052102
2448.0,0.0112869
2450.0,0.0132724
2452.0,0.0278529
2454.0,0.0324953
2456.0,0.0371083
2458.0,0.0266007
2460.0,0.011215
2462.0,0.0138826
2464.0,0.0289673
2466.0,0.0432641
2468.0,0.0511231
2470.0,0.0604985
2472.0,0.0532341
2474.0,0.0597769
2476.0,0.0388919
2478.0,0.0372496
2480.0,0.0820219
2482.0,0.155195
2484.0,0.1592
2486.0,0.12144
2488.0,0.0622137
2490.0,0.0275509
2492.0,0.2144
2494.0,0.219238
2496.0,0.0476182
2498.0,0.0
2500.0,0.0