File: data/spectra_ascii/AsphaltTrockenVerschmutzung1___corthum00399.txt
Wavelength (nm),Reflectance
350.0,0.0582415
352.0,0.0581952
354.0,0.0581758
356.0,0.0587788
358.0,0.0588875
360.0,0.0600787
362.0,0.0600637
364.0,0.0601197
366.0,0.0608029
368.0,0.0607144
370.0,0.0617351
372.0,0.0622939
374.0,0.0627596
376.0,0.0637025
378.0,0.0634638
380.0,0.0644688
382.0,0.0646501
384.0,0.0656878
386.0,0.0663829
388.0,0.0668771
390.0,0.0672754
392.0,0.0676666
394.0,0.0681983
396.0,0.0684558
398.0,0.0689655
400.0,0.0694142
402.0,0.0698546
404.0,0.0702467
406.0,0.0706436
408.0,0.0711618
410.0,0.0716459
412.0,0.0721394
414.0,0.0726754
416.0,0.0732224
418.0,0.0735332
420.0,0.0740726
422.0,0.074677
424.0,0.0751635
426.0,0.0755898
428.0,0.0761706
430.0,0.0766999
432.0,0.0772903
434.0,0.0777153
436.0,0.0781696
438.0,0.0787416
440.0,0.0793203
442.0,0.0798201
444.0,0.0803184
446.0,0.0807287
448.0,0.0812584
450.0,0.0817464
452.0,0.0821421
454.0,0.0827338
456.0,0.083087
458.0,0.0835399
460.0,0.0839905
462.0,0.0844811
464.0,0.0848854
466.0,0.0853345
468.0,0.0858335
470.0,0.0862406
472.0,0.0866619
474.0,0.0871319
476.0,0.0874722
478.0,0.0880369
480.0,0.0885425
482.0,0.0889901
484.0,0.0895258
486.0,0.0900675
488.0,0.0907297
490.0,0.0911681
492.0,0.0917911
494.0,0.0923447
496.0,0.0928162
498.0,0.0934547
500.0,0.0941234
502.0,0.0947518
504.0,0.0952295
506.0,0.095856
508.0,0.0965031
510.0,0.097135
512.0,0.0977465
514.0,0.0984771
516.0,0.0991544
518.0,0.0998783
520.0,0.100557
522.0,0.101263
524.0,0.101954
526.0,0.102722
528.0,0.103513
530.0,0.104257
532.0,0.105107
534.0,0.105965
536.0,0.106831
538.0,0.107712
540.0,0.10866
542.0,0.109617
544.0,0.11059
546.0,0.111549
548.0,0.112543
550.0,0.113591
552.0,0.114657
554.0,0.115724
556.0,0.116834
558.0,0.117978
560.0,0.119066
562.0,0.120132
564.0,0.121239
566.0,0.122295
568.0,0.123425
570.0,0.124421
572.0,0.125402
574.0,0.1265
576.0,0.127463
578.0,0.128429
580.0,0.129456
582.0,0.130462
584.0,0.131419
586.0,0.132387
588.0,0.133415
590.0,0.134355
592.0,0.135149
594.0,0.135962
596.0,0.136894
598.0,0.137684
600.0,0.138487
602.0,0.139332
604.0,0.140171
606.0,0.14102
608.0,0.141918
610.0,0.142711
612.0,0.143569
614.0,0.144389
616.0,0.1452
618.0,0.146054
620.0,0.14682
622.0,0.147593
624.0,0.148425
626.0,0.149222
628.0,0.150097
630.0,0.150978
632.0,0.151726
634.0,0.152475
636.0,0.153401
638.0,0.154162
640.0,0.154961
642.0,0.155728
644.0,0.156589
646.0,0.157325
648.0,0.158149
650.0,0.159013
652.0,0.159818
654.0,0.160533
656.0,0.161386
658.0,0.162202
660.0,0.162873
662.0,0.163725
664.0,0.164518
666.0,0.165212
668.0,0.165969
670.0,0.166776
672.0,0.167495
674.0,0.168221
676.0,0.169089
678.0,0.169853
680.0,0.170649
682.0,0.171381
684.0,0.172088
686.0,0.172963
688.0,0.1738
690.0,0.174566
692.0,0.175279
694.0,0.176031
696.0,0.176836
698.0,0.177636
700.0,0.178379
702.0,0.179098
704.0,0.179881
706.0,0.180674
708.0,0.181419
710.0,0.182224
712.0,0.182928
714.0,0.183708
716.0,0.184607
718.0,0.185459
720.0,0.186273
722.0,0.18704
724.0,0.187923
726.0,0.188686
728.0,0.189496
730.0,0.190338
732.0,0.191196
734.0,0.191983
736.0,0.192863
738.0,0.193699
740.0,0.194584
742.0,0.195394
744.0,0.196233
746.0,0.197096
748.0,0.197977
750.0,0.19889
752.0,0.1998
754.0,0.200658
756.0,0.201554
758.0,0.202531
760.0,0.203105
762.0,0.20445
764.0,0.205241
766.0,0.206287
768.0,0.206988
770.0,0.207843
772.0,0.208733
774.0,0.209602
776.0,0.210402
778.0,0.211315
780.0,0.212169
782.0,0.213106
784.0,0.213996
786.0,0.214846
788.0,0.215694
790.0,0.216689
792.0,0.217536
794.0,0.218457
796.0,0.219306
798.0,0.220174
800.0,0.22101
802.0,0.221883
804.0,0.222757
806.0,0.223634
808.0,0.22444
810.0,0.225356
812.0,0.226341
814.0,0.227199
816.0,0.228021
818.0,0.229008
820.0,0.229782
822.0,0.230592
824.0,0.231439
826.0,0.232199
828.0,0.233109
830.0,0.233972
832.0,0.234735
834.0,0.235612
836.0,0.236467
838.0,0.237316
840.0,0.237944
842.0,0.238819
844.0,0.239501
846.0,0.24046
848.0,0.241219
850.0,0.241989
852.0,0.242671
854.0,0.24366
856.0,0.244404
858.0,0.245132
860.0,0.245874
862.0,0.246738
864.0,0.247424
866.0,0.248172
868.0,0.248954
870.0,0.249708
872.0,0.250383
874.0,0.25116
876.0,0.251919
878.0,0.252725
880.0,0.25341
882.0,0.254126
884.0,0.254846
886.0,0.255894
888.0,0.256365
890.0,0.257084
892.0,0.257923
894.0,0.258487
896.0,0.259257
898.0,0.259888
900.0,0.261026
902.0,0.26148
904.0,0.262042
906.0,0.262829
908.0,0.263709
910.0,0.264015
912.0,0.264726
914.0,0.265594
916.0,0.265976
918.0,0.267012
920.0,0.267409
922.0,0.268366
924.0,0.268798
926.0,0.269409
928.0,0.26999
930.0,0.269478
932.0,0.269473
934.0,0.268715
936.0,0.270807
938.0,0.271835
940.0,0.272051
942.0,0.272753
944.0,0.272794
946.0,0.273302
948.0,0.274517
950.0,0.274329
952.0,0.275432
954.0,0.276598
956.0,0.277214
958.0,0.277883
960.0,0.279194
962.0,0.279756
964.0,0.280713
966.0,0.281276
968.0,0.281379
970.0,0.282397
972.0,0.283265
974.0,0.282949
976.0,0.283646
978.0,0.284747
980.0,0.284721
982.0,0.285891
984.0,0.285518
986.0,0.285721
988.0,0.287162
990.0,0.28727
992.0,0.287848
994.0,0.287252
996.0,0.28792
998.0,0.28859
1000.0,0.289221
1002.0,0.294541
1004.0,0.295868
1006.0,0.296707
1008.0,0.296695
1010.0,0.296981
1012.0,0.297978
1014.0,0.297981
1016.0,0.298041
1018.0,0.298399
1020.0,0.298754
1022.0,0.299035
1024.0,0.299897
1026.0,0.30061
1028.0,0.300763
1030.0,0.300693
1032.0,0.301295
1034.0,0.301694
1036.0,0.301421
1038.0,0.301748
1040.0,0.302401
1042.0,0.302758
1044.0,0.303033
1046.0,0.303263
1048.0,0.30386
1050.0,0.30457
1052.0,0.30463
1054.0,0.304854
1056.0,0.305186
1058.0,0.30524
1060.0,0.306133
1062.0,0.306614
1064.0,0.30685
1066.0,0.307293
1068.0,0.308012
1070.0,0.308416
1072.0,0.308076
1074.0,0.308387
1076.0,0.308947
1078.0,0.309311
1080.0,0.309296
1082.0,0.309826
1084.0,0.310054
1086.0,0.31052
1088.0,0.311476
1090.0,0.311521
1092.0,0.311803
1094.0,0.311804
1096.0,0.312243
1098.0,0.31246
1100.0,0.312574
1102.0,0.312769
1104.0,0.313177
1106.0,0.3131
1108.0,0.312871
1110.0,0.313397
1112.0,0.31394
1114.0,0.314606
1116.0,0.314736
1118.0,0.314797
1120.0,0.314396
1122.0,0.314734
1124.0,0.315714
1126.0,0.31564
1128.0,0.31598
1130.0,0.315846
1132.0,0.315874
1134.0,0.315321
1136.0,0.315941
1138.0,0.317276
1140.0,0.318411
1142.0,0.31923
1144.0,0.319498
1146.0,0.319048
1148.0,0.319086
1150.0,0.319475
1152.0,0.320796
1154.0,0.321479
1156.0,0.321696
1158.0,0.321534
1160.0,0.321818
1162.0,0.322246
1164.0,0.322276
1166.0,0.322146
1168.0,0.322353
1170.0,0.322865
1172.0,0.323294
1174.0,0.323731
1176.0,0.323956
1178.0,0.324237
1180.0,0.324535
1182.0,0.324744
1184.0,0.325013
1186.0,0.325129
1188.0,0.32523
1190.0,0.325281
1192.0,0.325481
1194.0,0.325708
1196.0,0.326161
1198.0,0.326437
1200.0,0.326603
1202.0,0.326773
1204.0,0.326714
1206.0,0.326872
1208.0,0.327466
1210.0,0.327754
1212.0,0.327688
1214.0,0.328223
1216.0,0.328355
1218.0,0.328086
1220.0,0.328135
1222.0,0.328101
1224.0,0.328271
1226.0,0.328575
1228.0,0.329056
1230.0,0.329241
1232.0,0.329329
1234.0,0.329564
1236.0,0.32975
1238.0,0.329617
1240.0,0.329461
1242.0,0.329533
1244.0,0.329688
1246.0,0.32992
1248.0,0.330358
1250.0,0.330747
1252.0,0.330861
1254.0,0.330849
1256.0,0.330952
1258.0,0.330887
1260.0,0.330699
1262.0,0.330806
1264.0,0.331033
1266.0,0.331043
1268.0,0.331313
1270.0,0.331457
1272.0,0.331365
1274.0,0.331661
1276.0,0.332435
1278.0,0.332743
1280.0,0.332358
1282.0,0.332749
1284.0,0.332947
1286.0,0.332872
1288.0,0.333356
1290.0,0.333651
1292.0,0.333781
1294.0,0.333881
1296.0,0.334099
1298.0,0.334145
1300.0,0.334357
1302.0,0.334925
1304.0,0.33507
1306.0,0.334861
1308.0,0.334923
1310.0,0.335094
1312.0,0.335313
1314.0,0.335758
1316.0,0.336289
1318.0,0.336392
1320.0,0.335882
1322.0,0.335342
1324.0,0.33545
1326.0,0.336016
1328.0,0.336668
1330.0,0.337026
1332.0,0.336521
1334.0,0.336441
1336.0,0.337337
1338.0,0.337711
1340.0,0.337887
1342.0,0.33756
1344.0,0.337545
1346.0,0.337117
1348.0,0.335411
1350.0,0.334682
1352.0,0.335339
1354.0,0.337036
1356.0,0.351163
1358.0,0.371672
1360.0,0.381717
1362.0,0.419185
1364.0,0.423189
1366.0,0.341702
1368.0,0.31897
1370.0,0.326465
1372.0,0.395003
1374.0,0.422867
1376.0,0.40823
1378.0,0.363908
1380.0,0.301482
1382.0,0.280314
1384.0,0.312758
1386.0,0.3266
1388.0,0.333562
1390.0,0.335958
1392.0,0.332266
1394.0,0.306317
1396.0,0.307228
1398.0,0.318179
1400.0,0.317865
1402.0,0.316459
1404.0,0.315783
1406.0,0.322624
1408.0,0.325363
1410.0,0.327324
1412.0,0.329726
1414.0,0.329012
1416.0,0.325508
1418.0,0.323163
1420.0,0.324989
1422.0,0.327757
1424.0,0.327449
1426.0,0.326885
1428.0,0.327919
1430.0,0.328129
1432.0,0.327763
1434.0,0.327626
1436.0,0.329223
1438.0,0.328994
1440.0,0.327696
1442.0,0.32597
1444.0,0.326132
1446.0,0.327278
1448.0,0.327024
1450.0,0.326837
1452.0,0.327364
1454.0,0.327136
1456.0,0.327634
1458.0,0.328158
1460.0,0.328004
1462.0,0.327632
1464.0,0.327674
1466.0,0.328161
1468.0,0.328525
1470.0,0.328438
1472.0,0.327865
1474.0,0.328251
1476.0,0.329229
1478.0,0.329565
1480.0,0.329523
1482.0,0.331067
1484.0,0.332458
1486.0,0.332328
1488.0,0.332019
1490.0,0.331997
1492.0,0.332398
1494.0,0.332741
1496.0,0.332822
1498.0,0.333009
1500.0,0.333052
1502.0,0.333084
1504.0,0.33334
1506.0,0.333887
1508.0,0.334353
1510.0,0.334697
1512.0,0.33476
1514.0,0.334556
1516.0,0.334657
1518.0,0.335
1520.0,0.335121
1522.0,0.335341
1524.0,0.33564
1526.0,0.336156
1528.0,0.336542
1530.0,0.336595
1532.0,0.336435
1534.0,0.336801
1536.0,0.336889
1538.0,0.336866
1540.0,0.33722
1542.0,0.337466
1544.0,0.337222
1546.0,0.337316
1548.0,0.337428
1550.0,0.337626
1552.0,0.33781
1554.0,0.33756
1556.0,0.337259
1558.0,0.337629
1560.0,0.338157
1562.0,0.338557
1564.0,0.338584
1566.0,0.338035
1568.0,0.337912
1570.0,0.338013
1572.0,0.337872
1574.0,0.338131
1576.0,0.338266
1578.0,0.338236
1580.0,0.339068
1582.0,0.339745
1584.0,0.339254
1586.0,0.339457
1588.0,0.340104
1590.0,0.339835
1592.0,0.339504
1594.0,0.33954
1596.0,0.339555
1598.0,0.339821
1600.0,0.339917
1602.0,0.339892
1604.0,0.339861
1606.0,0.339915
1608.0,0.339782
1610.0,0.339969
1612.0,0.340362
1614.0,0.340408
1616.0,0.340098
1618.0,0.340283
1620.0,0.34092
1622.0,0.340767
1624.0,0.340313
1626.0,0.34055
1628.0,0.340451
1630.0,0.340364
1632.0,0.340764
1634.0,0.340632
1636.0,0.340535
1638.0,0.340301
1640.0,0.340037
1642.0,0.339974
1644.0,0.339972
1646.0,0.339773
1648.0,0.339853
1650.0,0.340171
1652.0,0.340118
1654.0,0.340343
1656.0,0.340151
1658.0,0.339768
1660.0,0.339849
1662.0,0.339745
1664.0,0.33909
1666.0,0.338475
1668.0,0.338112
1670.0,0.338352
1672.0,0.339393
1674.0,0.339303
1676.0,0.33931
1678.0,0.339845
1680.0,0.340012
1682.0,0.339633
1684.0,0.340312
1686.0,0.340986
1688.0,0.340605
1690.0,0.340096
1692.0,0.340278
1694.0,0.341064
1696.0,0.340911
1698.0,0.340111
1700.0,0.340216
1702.0,0.340815
1704.0,0.341051
1706.0,0.341126
1708.0,0.340814
1710.0,0.34093
1712.0,0.340822
1714.0,0.340178
1716.0,0.340122
1718.0,0.340665
1720.0,0.340733
1722.0,0.340976
1724.0,0.340848
1726.0,0.340514
1728.0,0.341227
1730.0,0.340541
1732.0,0.340116
1734.0,0.340973
1736.0,0.339871
1738.0,0.340069
1740.0,0.340563
1742.0,0.34113
1744.0,0.341697
1746.0,0.340279
1748.0,0.339668
1750.0,0.340449
1752.0,0.341036
1754.0,0.340806
1756.0,0.340405
1758.0,0.340125
1760.0,0.340568
1762.0,0.340813
1764.0,0.340212
1766.0,0.34063
1768.0,0.340597
1770.0,0.34046
1772.0,0.340796
1774.0,0.340341
1776.0,0.340581
1778.0,0.341679
1780.0,0.340171
1782.0,0.33898
1784.0,0.339004
1786.0,0.34008
1788.0,0.341075
1790.0,0.339568
1792.0,0.338441
1794.0,0.338494
1796.0,0.338047
1798.0,0.338673
1800.0,0.339664
1802.0,0.346252
1804.0,0.350405
1806.0,0.348626
1808.0,0.338303
1810.0,0.337172
1812.0,0.342288
1814.0,0.343078
1816.0,0.360823
1818.0,0.406872
1820.0,0.429359
1822.0,0.349131
1824.0,0.341979
1826.0,0.372599
1828.0,0.319479
1830.0,0.308049
1832.0,0.338574
1834.0,0.499361
1836.0,1.0
1838.0,0.905798
1840.0,0.478198
1842.0,1.0
1844.0,0.0
1846.0,0.0
1848.0,0.0
1850.0,0.0
1852.0,0.424973
1854.0,0.0994638
1856.0,0.115667
1858.0,1.0
1860.0,1.0
1862.0,0.481367
1864.0,0.287447
1866.0,0.446332
1868.0,1.0
1870.0,0.748471
1872.0,0.336572
1874.0,0.824287
1876.0,0.706041
1878.0,0.600437
1880.0,0.347161
1882.0,0.315387
1884.0,0.270059
1886.0,0.327956
1888.0,0.367855
1890.0,0.64011
1892.0,0.67088
1894.0,0.52881
1896.0,0.431882
1898.0,0.336927
1900.0,0.33191
1902.0,0.587189
1904.0,0.683166
1906.0,0.54486
1908.0,0.31693
1910.0,0.271516
1912.0,1.0
1914.0,1.0
1916.0,0.427652
1918.0,0.220591
1920.0,0.215557
1922.0,0.218487
1924.0,0.255769
1926.0,0.268924
1928.0,0.281095
1930.0,0.302649
1932.0,0.307715
1934.0,0.303376
1936.0,0.314664
1938.0,0.299091
1940.0,0.284698
1942.0,0.286385
1944.0,0.285855
1946.0,0.289696
1948.0,0.302969
1950.0,0.30571
1952.0,0.311198
1954.0,0.301233
1956.0,0.312019
1958.0,0.316273
1960.0,0.303332
1962.0,0.304141
1964.0,0.313202
1966.0,0.314125
1968.0,0.310697
1970.0,0.307051
1972.0,0.307527
1974.0,0.312136
1976.0,0.311839
1978.0,0.309708
1980.0,0.307724
1982.0,0.309268
1984.0,0.312945
1986.0,0.313216
1988.0,0.311225
1990.0,0.312554
1992.0,0.31426
1994.0,0.313476
1996.0,0.312836
1998.0,0.313283
2000.0,0.313888
2002.0,0.322177
2004.0,0.324187
2006.0,0.319807
2008.0,0.309013
2010.0,0.302029
2012.0,0.307439
2014.0,0.320081
2016.0,0.320088
2018.0,0.318674
2020.0,0.318065
2022.0,0.320979
2024.0,0.322064
2026.0,0.32051
2028.0,0.320807
2030.0,0.323028
2032.0,0.323445
2034.0,0.323129
2036.0,0.323195
2038.0,0.324219
2040.0,0.325179
2042.0,0.325424
2044.0,0.325393
2046.0,0.324667
2048.0,0.322737
2050.0,0.322494
2052.0,0.323744
2054.0,0.321042
2056.0,0.321198
2058.0,0.322612
2060.0,0.321175
2062.0,0.320876
2064.0,0.323628
2066.0,0.324698
2068.0,0.326366
2070.0,0.32461
2072.0,0.322089
2074.0,0.321596
2076.0,0.323335
2078.0,0.324343
2080.0,0.324396
2082.0,0.323678
2084.0,0.32502
2086.0,0.326486
2088.0,0.326618
2090.0,0.326791
2092.0,0.325323
2094.0,0.32388
2096.0,0.322897
2098.0,0.324027
2100.0,0.324882
2102.0,0.325591
2104.0,0.325036
2106.0,0.326924
2108.0,0.327116
2110.0,0.327619
2112.0,0.327747
2114.0,0.325524
2116.0,0.322557
2118.0,0.322644
2120.0,0.325054
2122.0,0.326883
2124.0,0.328766
2126.0,0.329751
2128.0,0.32967
2130.0,0.328839
2132.0,0.327385
2134.0,0.326595
2136.0,0.325598
2138.0,0.325869
2140.0,0.326962
2142.0,0.327521
2144.0,0.327407
2146.0,0.326014
2148.0,0.32512
2150.0,0.325279
2152.0,0.326224
2154.0,0.326261
2156.0,0.32557
2158.0,0.324816
2160.0,0.323753
2162.0,0.323472
2164.0,0.323398
2166.0,0.324718
2168.0,0.325711
2170.0,0.32759
2172.0,0.326354
2174.0,0.323111
2176.0,0.321831
2178.0,0.321891
2180.0,0.323521
2182.0,0.323861
2184.0,0.322662
2186.0,0.322492
2188.0,0.322002
2190.0,0.322016
2192.0,0.324407
2194.0,0.323867
2196.0,0.321266
2198.0,0.321979
2200.0,0.322206
2202.0,0.320874
2204.0,0.321765
2206.0,0.320462
2208.0,0.316544
2210.0,0.315084
2212.0,0.316771
2214.0,0.318272
2216.0,0.318414
2218.0,0.315099
2220.0,0.316461
2222.0,0.3205
2224.0,0.321096
2226.0,0.321274
2228.0,0.319823
2230.0,0.319232
2232.0,0.321112
2234.0,0.321319
2236.0,0.318156
2238.0,0.31689
2240.0,0.316748
2242.0,0.315767
2244.0,0.317025
2246.0,0.316832
2248.0,0.315919
2250.0,0.314449
2252.0,0.313947
2254.0,0.310221
2256.0,0.308167
2258.0,0.309554
2260.0,0.312253
2262.0,0.315369
2264.0,0.314838
2266.0,0.312689
2268.0,0.309667
2270.0,0.30924
2272.0,0.309344
2274.0,0.309547
2276.0,0.308655
2278.0,0.306088
2280.0,0.304904
2282.0,0.30833
2284.0,0.308698
2286.0,0.309839
2288.0,0.313295
2290.0,0.307574
2292.0,0.304838
2294.0,0.308783
2296.0,0.306914
2298.0,0.304129
2300.0,0.303744
2302.0,0.304654
2304.0,0.304373
2306.0,0.306615
2308.0,0.311176
2310.0,0.311608
2312.0,0.308808
2314.0,0.304215
2316.0,0.301846
2318.0,0.299419
2320.0,0.303207
2322.0,0.309585
2324.0,0.309127
2326.0,0.303111
2328.0,0.296394
2330.0,0.2969
2332.0,0.302875
2334.0,0.305487
2336.0,0.306337
2338.0,0.307696
2340.0,0.304392
2342.0,0.303376
2344.0,0.298157
2346.0,0.291286
2348.0,0.291106
2350.0,0.288645
2352.0,0.289517
2354.0,0.296105
2356.0,0.300678
2358.0,0.304737
2360.0,0.306715
2362.0,0.304809
2364.0,0.304846
2366.0,0.305538
2368.0,0.301272
2370.0,0.299125
2372.0,0.308019
2374.0,0.311093
2376.0,0.307198
2378.0,0.310711
2380.0,0.315478
2382.0,0.311656
2384.0,0.308551
2386.0,0.312419
2388.0,0.30448
2390.0,0.292879
2392.0,0.292148
2394.0,0.292172
2396.0,0.297452
2398.0,0.302432
2400.0,0.308704
2402.0,0.312518
2404.0,0.298898
2406.0,0.296889
2408.0,0.296686
2410.0,0.304081
2412.0,0.316125
2414.0,0.315872
2416.0,0.303302
2418.0,0.29843
2420.0,0.298863
2422.0,0.304266
2424.0,0.314191
2426.0,0.310063
2428.0,0.3055
2430.0,0.322631
2432.0,0.322593
2434.0,0.312695
2436.0,0.300918
2438.0,0.282301
2440.0,0.270515
2442.0,0.269593
2444.0,0.282632
2446.0,0.312027
2448.0,0.357156
2450.0,0.323031
2452.0,0.286619
2454.0,0.268982
2456.0,0.269584
2458.0,0.29471
2460.0,0.286299
2462.0,0.268836
2464.0,0.273497
2466.0,0.286098
2468.0,0.299099
2470.0,0.273162
2472.0,0.261532
2474.0,0.312209
2476.0,0.330365
2478.0,0.331114
2480.0,0.321451
2482.0,0.333099
2484.0,0.49257
2486.0,0.566961
2488.0,0.372078
2490.0,0.243937
2492.0,0.203284
2494.0,0.308227
2496.0,0.307883
2498.0,0.247671
2500.0,0.286164