File: data/spectra_ascii/AsphaltTrockenVerschmutzung1___corthum00395.txt
Wavelength (nm),Reflectance
350.0,0.07727
352.0,0.0779012
354.0,0.0782124
356.0,0.0786639
358.0,0.0788575
360.0,0.0798916
362.0,0.0802313
364.0,0.0802826
366.0,0.0810706
368.0,0.081703
370.0,0.0823227
372.0,0.0830271
374.0,0.0837835
376.0,0.0847725
378.0,0.0851351
380.0,0.0860184
382.0,0.0867325
384.0,0.0874949
386.0,0.0880925
388.0,0.0889609
390.0,0.0898429
392.0,0.0900306
394.0,0.0907944
396.0,0.091732
398.0,0.0923573
400.0,0.0929776
402.0,0.0934537
404.0,0.094057
406.0,0.0946938
408.0,0.0952016
410.0,0.0959003
412.0,0.0966045
414.0,0.097203
416.0,0.0979034
418.0,0.0984614
420.0,0.0991734
422.0,0.0998357
424.0,0.100609
426.0,0.101224
428.0,0.102044
430.0,0.102747
432.0,0.103556
434.0,0.104345
436.0,0.105047
438.0,0.105786
440.0,0.106523
442.0,0.107305
444.0,0.107913
446.0,0.108513
448.0,0.109166
450.0,0.109887
452.0,0.110443
454.0,0.111052
456.0,0.111565
458.0,0.112075
460.0,0.112669
462.0,0.113233
464.0,0.113715
466.0,0.114176
468.0,0.114759
470.0,0.115252
472.0,0.115858
474.0,0.116376
476.0,0.116911
478.0,0.117414
480.0,0.11803
482.0,0.118713
484.0,0.119342
486.0,0.120025
488.0,0.120788
490.0,0.121382
492.0,0.122116
494.0,0.122895
496.0,0.123608
498.0,0.124323
500.0,0.125184
502.0,0.125912
504.0,0.126686
506.0,0.127458
508.0,0.128249
510.0,0.129003
512.0,0.129781
514.0,0.130609
516.0,0.131412
518.0,0.132379
520.0,0.133185
522.0,0.134049
524.0,0.134887
526.0,0.13582
528.0,0.136789
530.0,0.137719
532.0,0.138743
534.0,0.139826
536.0,0.140869
538.0,0.141996
540.0,0.143158
542.0,0.144339
544.0,0.14554
546.0,0.146807
548.0,0.148053
550.0,0.149395
552.0,0.150744
554.0,0.152165
556.0,0.153669
558.0,0.155116
560.0,0.156504
562.0,0.157925
564.0,0.159338
566.0,0.160647
568.0,0.16211
570.0,0.1635
572.0,0.164828
574.0,0.166093
576.0,0.167381
578.0,0.168689
580.0,0.169912
582.0,0.171127
584.0,0.172294
586.0,0.17335
588.0,0.174445
590.0,0.175555
592.0,0.176439
594.0,0.177364
596.0,0.178349
598.0,0.179209
600.0,0.180054
602.0,0.180851
604.0,0.181674
606.0,0.182509
608.0,0.183334
610.0,0.184079
612.0,0.184811
614.0,0.185616
616.0,0.186396
618.0,0.187124
620.0,0.187751
622.0,0.188471
624.0,0.189187
626.0,0.189885
628.0,0.190617
630.0,0.191394
632.0,0.192063
634.0,0.192708
636.0,0.193401
638.0,0.194094
640.0,0.194802
642.0,0.195406
644.0,0.196062
646.0,0.196722
648.0,0.197439
650.0,0.198086
652.0,0.198751
654.0,0.199332
656.0,0.200024
658.0,0.200736
660.0,0.201275
662.0,0.201893
664.0,0.202559
666.0,0.203147
668.0,0.20373
670.0,0.204393
672.0,0.204952
674.0,0.205487
676.0,0.206169
678.0,0.206774
680.0,0.207368
682.0,0.207932
684.0,0.208459
686.0,0.209141
688.0,0.209814
690.0,0.21034
692.0,0.210884
694.0,0.211453
696.0,0.21203
698.0,0.212572
700.0,0.213115
702.0,0.21369
704.0,0.214199
706.0,0.214795
708.0,0.215319
710.0,0.21589
712.0,0.216427
714.0,0.217021
716.0,0.217707
718.0,0.218354
720.0,0.21898
722.0,0.219485
724.0,0.220125
726.0,0.220747
728.0,0.221346
730.0,0.221884
732.0,0.222502
734.0,0.223044
736.0,0.223684
738.0,0.224266
740.0,0.224878
742.0,0.225445
744.0,0.226099
746.0,0.22671
748.0,0.227374
750.0,0.228003
752.0,0.228654
754.0,0.229294
756.0,0.229898
758.0,0.230661
760.0,0.231022
762.0,0.231867
764.0,0.232592
766.0,0.233281
768.0,0.233693
770.0,0.234262
772.0,0.234854
774.0,0.235403
776.0,0.235898
778.0,0.236554
780.0,0.23717
782.0,0.237656
784.0,0.238243
786.0,0.238809
788.0,0.239345
790.0,0.240006
792.0,0.240537
794.0,0.241074
796.0,0.241687
798.0,0.242246
800.0,0.242672
802.0,0.243208
804.0,0.243813
806.0,0.244299
808.0,0.24482
810.0,0.245363
812.0,0.246051
814.0,0.246547
816.0,0.247064
818.0,0.247642
820.0,0.248026
822.0,0.248541
824.0,0.248968
826.0,0.249317
828.0,0.249904
830.0,0.250354
832.0,0.250793
834.0,0.251296
836.0,0.251755
838.0,0.252231
840.0,0.252493
842.0,0.25294
844.0,0.253337
846.0,0.253796
848.0,0.254334
850.0,0.254702
852.0,0.25514
854.0,0.255651
856.0,0.256055
858.0,0.256359
860.0,0.256902
862.0,0.257364
864.0,0.257642
866.0,0.258062
868.0,0.25837
870.0,0.258768
872.0,0.259206
874.0,0.259705
876.0,0.260138
878.0,0.260584
880.0,0.260997
882.0,0.261374
884.0,0.261734
886.0,0.262227
888.0,0.2625
890.0,0.263056
892.0,0.263517
894.0,0.263804
896.0,0.264317
898.0,0.264542
900.0,0.265289
902.0,0.265565
904.0,0.266001
906.0,0.266322
908.0,0.26675
910.0,0.267135
912.0,0.267497
914.0,0.267877
916.0,0.268446
918.0,0.268664
920.0,0.269063
922.0,0.269474
924.0,0.269659
926.0,0.270204
928.0,0.270479
930.0,0.269778
932.0,0.269552
934.0,0.268926
936.0,0.269886
938.0,0.27144
940.0,0.271284
942.0,0.272161
944.0,0.271646
946.0,0.271658
948.0,0.272347
950.0,0.272363
952.0,0.273346
954.0,0.274015
956.0,0.27432
958.0,0.27525
960.0,0.275408
962.0,0.276551
964.0,0.276848
966.0,0.276834
968.0,0.277207
970.0,0.277592
972.0,0.278165
974.0,0.277849
976.0,0.278938
978.0,0.279171
980.0,0.279215
982.0,0.279818
984.0,0.279763
986.0,0.279751
988.0,0.280955
990.0,0.280492
992.0,0.28112
994.0,0.280506
996.0,0.279758
998.0,0.281484
1000.0,0.28161
1002.0,0.285708
1004.0,0.286197
1006.0,0.286822
1008.0,0.286755
1010.0,0.287052
1012.0,0.287721
1014.0,0.28779
1016.0,0.287461
1018.0,0.287572
1020.0,0.287849
1022.0,0.28797
1024.0,0.288523
1026.0,0.289048
1028.0,0.289001
1030.0,0.288747
1032.0,0.288763
1034.0,0.289066
1036.0,0.289004
1038.0,0.289429
1040.0,0.289787
1042.0,0.289774
1044.0,0.290082
1046.0,0.290065
1048.0,0.290544
1050.0,0.291001
1052.0,0.290936
1054.0,0.291
1056.0,0.29112
1058.0,0.291085
1060.0,0.291605
1062.0,0.291579
1064.0,0.291917
1066.0,0.292434
1068.0,0.292967
1070.0,0.292914
1072.0,0.292418
1074.0,0.292691
1076.0,0.292844
1078.0,0.293333
1080.0,0.293466
1082.0,0.294027
1084.0,0.293709
1086.0,0.293623
1088.0,0.294548
1090.0,0.294968
1092.0,0.295294
1094.0,0.295241
1096.0,0.295122
1098.0,0.294895
1100.0,0.294988
1102.0,0.294949
1104.0,0.295433
1106.0,0.295838
1108.0,0.295746
1110.0,0.295921
1112.0,0.296003
1114.0,0.296266
1116.0,0.296294
1118.0,0.296027
1120.0,0.295985
1122.0,0.296912
1124.0,0.296768
1126.0,0.29628
1128.0,0.296104
1130.0,0.296469
1132.0,0.297382
1134.0,0.29719
1136.0,0.297716
1138.0,0.298472
1140.0,0.29898
1142.0,0.299922
1144.0,0.300262
1146.0,0.299803
1148.0,0.299353
1150.0,0.299544
1152.0,0.300681
1154.0,0.301453
1156.0,0.301789
1158.0,0.301642
1160.0,0.301591
1162.0,0.301906
1164.0,0.302064
1166.0,0.301953
1168.0,0.301939
1170.0,0.302145
1172.0,0.302498
1174.0,0.303008
1176.0,0.303195
1178.0,0.303136
1180.0,0.303306
1182.0,0.303562
1184.0,0.30374
1186.0,0.303915
1188.0,0.303989
1190.0,0.304153
1192.0,0.304487
1194.0,0.304722
1196.0,0.304891
1198.0,0.304848
1200.0,0.304759
1202.0,0.304653
1204.0,0.304849
1206.0,0.305453
1208.0,0.305887
1210.0,0.305926
1212.0,0.305732
1214.0,0.306158
1216.0,0.305978
1218.0,0.305557
1220.0,0.305733
1222.0,0.30587
1224.0,0.305896
1226.0,0.306016
1228.0,0.30616
1230.0,0.306451
1232.0,0.306442
1234.0,0.306312
1236.0,0.306139
1238.0,0.306029
1240.0,0.306056
1242.0,0.306023
1244.0,0.305982
1246.0,0.306143
1248.0,0.306308
1250.0,0.306497
1252.0,0.306561
1254.0,0.30635
1256.0,0.30644
1258.0,0.306537
1260.0,0.306358
1262.0,0.306173
1264.0,0.306476
1266.0,0.306701
1268.0,0.306923
1270.0,0.306714
1272.0,0.306759
1274.0,0.306967
1276.0,0.307455
1278.0,0.307681
1280.0,0.307506
1282.0,0.307563
1284.0,0.307651
1286.0,0.307814
1288.0,0.308163
1290.0,0.308268
1292.0,0.308253
1294.0,0.308116
1296.0,0.308302
1298.0,0.308559
1300.0,0.308747
1302.0,0.30913
1304.0,0.309189
1306.0,0.308966
1308.0,0.308873
1310.0,0.308922
1312.0,0.309103
1314.0,0.309287
1316.0,0.309485
1318.0,0.309417
1320.0,0.30923
1322.0,0.309112
1324.0,0.309242
1326.0,0.309692
1328.0,0.310302
1330.0,0.310769
1332.0,0.310449
1334.0,0.310037
1336.0,0.310319
1338.0,0.310576
1340.0,0.311237
1342.0,0.3118
1344.0,0.312516
1346.0,0.311961
1348.0,0.309489
1350.0,0.309095
1352.0,0.309831
1354.0,0.311134
1356.0,0.32697
1358.0,0.357439
1360.0,0.373131
1362.0,0.441295
1364.0,0.573683
1366.0,0.427008
1368.0,0.328096
1370.0,0.26251
1372.0,0.318697
1374.0,0.367233
1376.0,0.366504
1378.0,0.315969
1380.0,0.281043
1382.0,0.296171
1384.0,0.354405
1386.0,0.331308
1388.0,0.287589
1390.0,0.286408
1392.0,0.301587
1394.0,0.295545
1396.0,0.311483
1398.0,0.304413
1400.0,0.287104
1402.0,0.299972
1404.0,0.309391
1406.0,0.3136
1408.0,0.31117
1410.0,0.310239
1412.0,0.30893
1414.0,0.308419
1416.0,0.309467
1418.0,0.308624
1420.0,0.308626
1422.0,0.309659
1424.0,0.31119
1426.0,0.312138
1428.0,0.311809
1430.0,0.312042
1432.0,0.312748
1434.0,0.313222
1436.0,0.313626
1438.0,0.313674
1440.0,0.312983
1442.0,0.312634
1444.0,0.313345
1446.0,0.314542
1448.0,0.314036
1450.0,0.313351
1452.0,0.314591
1454.0,0.314555
1456.0,0.315127
1458.0,0.315466
1460.0,0.31497
1462.0,0.314564
1464.0,0.31504
1466.0,0.314987
1468.0,0.314589
1470.0,0.315155
1472.0,0.315094
1474.0,0.315022
1476.0,0.316201
1478.0,0.316759
1480.0,0.316636
1482.0,0.31784
1484.0,0.318562
1486.0,0.318276
1488.0,0.317981
1490.0,0.31835
1492.0,0.318978
1494.0,0.318849
1496.0,0.31848
1498.0,0.318978
1500.0,0.319189
1502.0,0.318804
1504.0,0.318814
1506.0,0.319391
1508.0,0.319625
1510.0,0.319484
1512.0,0.319677
1514.0,0.319844
1516.0,0.319806
1518.0,0.319756
1520.0,0.319715
1522.0,0.319611
1524.0,0.319735
1526.0,0.320174
1528.0,0.320171
1530.0,0.320051
1532.0,0.31988
1534.0,0.320266
1536.0,0.320384
1538.0,0.320318
1540.0,0.320474
1542.0,0.320706
1544.0,0.320558
1546.0,0.320478
1548.0,0.320323
1550.0,0.320153
1552.0,0.320324
1554.0,0.320139
1556.0,0.319563
1558.0,0.31985
1560.0,0.320604
1562.0,0.320669
1564.0,0.32032
1566.0,0.31985
1568.0,0.319853
1570.0,0.319941
1572.0,0.319572
1574.0,0.31964
1576.0,0.319594
1578.0,0.319621
1580.0,0.320387
1582.0,0.32072
1584.0,0.320128
1586.0,0.320097
1588.0,0.320677
1590.0,0.320752
1592.0,0.320705
1594.0,0.320857
1596.0,0.320534
1598.0,0.320274
1600.0,0.320206
1602.0,0.319919
1604.0,0.319887
1606.0,0.320265
1608.0,0.320054
1610.0,0.319573
1612.0,0.319508
1614.0,0.319575
1616.0,0.319346
1618.0,0.319252
1620.0,0.319666
1622.0,0.319303
1624.0,0.318452
1626.0,0.31849
1628.0,0.318596
1630.0,0.31862
1632.0,0.318658
1634.0,0.318437
1636.0,0.318602
1638.0,0.318377
1640.0,0.317886
1642.0,0.317874
1644.0,0.318099
1646.0,0.318187
1648.0,0.318037
1650.0,0.318283
1652.0,0.318164
1654.0,0.317964
1656.0,0.318048
1658.0,0.317675
1660.0,0.317577
1662.0,0.317587
1664.0,0.317147
1666.0,0.317102
1668.0,0.317037
1670.0,0.317088
1672.0,0.317567
1674.0,0.317205
1676.0,0.317474
1678.0,0.318071
1680.0,0.318219
1682.0,0.317796
1684.0,0.318443
1686.0,0.31918
1688.0,0.318767
1690.0,0.318682
1692.0,0.318866
1694.0,0.319295
1696.0,0.319047
1698.0,0.318333
1700.0,0.31869
1702.0,0.319478
1704.0,0.319371
1706.0,0.319124
1708.0,0.319009
1710.0,0.319686
1712.0,0.320185
1714.0,0.31985
1716.0,0.319688
1718.0,0.319765
1720.0,0.320148
1722.0,0.320398
1724.0,0.319924
1726.0,0.319475
1728.0,0.319819
1730.0,0.319306
1732.0,0.319545
1734.0,0.320162
1736.0,0.318845
1738.0,0.318888
1740.0,0.319233
1742.0,0.318974
1744.0,0.319025
1746.0,0.318713
1748.0,0.318425
1750.0,0.318967
1752.0,0.319224
1754.0,0.318785
1756.0,0.318952
1758.0,0.319238
1760.0,0.319408
1762.0,0.320287
1764.0,0.31995
1766.0,0.319575
1768.0,0.319539
1770.0,0.319364
1772.0,0.319257
1774.0,0.319452
1776.0,0.319802
1778.0,0.319588
1780.0,0.318893
1782.0,0.318395
1784.0,0.318132
1786.0,0.319218
1788.0,0.320459
1790.0,0.319723
1792.0,0.31914
1794.0,0.31937
1796.0,0.319344
1798.0,0.319841
1800.0,0.318487
1802.0,0.32695
1804.0,0.33093
1806.0,0.327385
1808.0,0.310379
1810.0,0.31137
1812.0,0.321862
1814.0,0.318367
1816.0,0.330433
1818.0,0.3717
1820.0,0.388804
1822.0,0.320925
1824.0,0.316365
1826.0,0.364324
1828.0,0.388727
1830.0,0.405618
1832.0,0.325491
1834.0,0.318235
1836.0,0.701804
1838.0,0.454099
1840.0,0.257206
1842.0,1.0
1844.0,0.0
1846.0,0.0
1848.0,0.0
1850.0,0.0
1852.0,0.320431
1854.0,0.0357304
1856.0,0.0
1858.0,0.463713
1860.0,1.0
1862.0,0.5557
1864.0,0.52556
1866.0,0.644077
1868.0,1.0
1870.0,0.775611
1872.0,0.365479
1874.0,0.927269
1876.0,0.567656
1878.0,0.65394
1880.0,0.505767
1882.0,0.477263
1884.0,0.2534
1886.0,0.286222
1888.0,0.394117
1890.0,0.539868
1892.0,0.449522
1894.0,0.434551
1896.0,0.454524
1898.0,0.301762
1900.0,0.181842
1902.0,0.143345
1904.0,0.095927
1906.0,0.115008
1908.0,0.109774
1910.0,0.223053
1912.0,1.0
1914.0,1.0
1916.0,0.535123
1918.0,0.318534
1920.0,0.301554
1922.0,0.310641
1924.0,0.331913
1926.0,0.299746
1928.0,0.259957
1930.0,0.284621
1932.0,0.297379
1934.0,0.287773
1936.0,0.306902
1938.0,0.319101
1940.0,0.31154
1942.0,0.304202
1944.0,0.300635
1946.0,0.296062
1948.0,0.293984
1950.0,0.300876
1952.0,0.306904
1954.0,0.295554
1956.0,0.301423
1958.0,0.306451
1960.0,0.291427
1962.0,0.300933
1964.0,0.313814
1966.0,0.312099
1968.0,0.306504
1970.0,0.301769
1972.0,0.303437
1974.0,0.307254
1976.0,0.307501
1978.0,0.308255
1980.0,0.308495
1982.0,0.308346
1984.0,0.309147
1986.0,0.308604
1988.0,0.307667
1990.0,0.308386
1992.0,0.30845
1994.0,0.307049
1996.0,0.306994
1998.0,0.306902
2000.0,0.305407
2002.0,0.314358
2004.0,0.320448
2006.0,0.325508
2008.0,0.313868
2010.0,0.301486
2012.0,0.306364
2014.0,0.320345
2016.0,0.320621
2018.0,0.318369
2020.0,0.315298
2022.0,0.316568
2024.0,0.316678
2026.0,0.315815
2028.0,0.31644
2030.0,0.317344
2032.0,0.316779
2034.0,0.316596
2036.0,0.315615
2038.0,0.316351
2040.0,0.318313
2042.0,0.317847
2044.0,0.318894
2046.0,0.318415
2048.0,0.318797
2050.0,0.319384
2052.0,0.320191
2054.0,0.317996
2056.0,0.3184
2058.0,0.318978
2060.0,0.319729
2062.0,0.319631
2064.0,0.319731
2066.0,0.32138
2068.0,0.323522
2070.0,0.322416
2072.0,0.320586
2074.0,0.320462
2076.0,0.322674
2078.0,0.324163
2080.0,0.321514
2082.0,0.321289
2084.0,0.325136
2086.0,0.324686
2088.0,0.324196
2090.0,0.325916
2092.0,0.323038
2094.0,0.320517
2096.0,0.319095
2098.0,0.32094
2100.0,0.322146
2102.0,0.323435
2104.0,0.323143
2106.0,0.324027
2108.0,0.324159
2110.0,0.324685
2112.0,0.325655
2114.0,0.325633
2116.0,0.32226
2118.0,0.32179
2120.0,0.32467
2122.0,0.32487
2124.0,0.325063
2126.0,0.325224
2128.0,0.325264
2130.0,0.32532
2132.0,0.324924
2134.0,0.32448
2136.0,0.323227
2138.0,0.323564
2140.0,0.323091
2142.0,0.321866
2144.0,0.322146
2146.0,0.322575
2148.0,0.322688
2150.0,0.322876
2152.0,0.322444
2154.0,0.322363
2156.0,0.323057
2158.0,0.322497
2160.0,0.320768
2162.0,0.319812
2164.0,0.318793
2166.0,0.319713
2168.0,0.321171
2170.0,0.321559
2172.0,0.318742
2174.0,0.315665
2176.0,0.314604
2178.0,0.314736
2180.0,0.315345
2182.0,0.315416
2184.0,0.313802
2186.0,0.312016
2188.0,0.311788
2190.0,0.311612
2192.0,0.312994
2194.0,0.312687
2196.0,0.311712
2198.0,0.313797
2200.0,0.312973
2202.0,0.309777
2204.0,0.309631
2206.0,0.30794
2208.0,0.306134
2210.0,0.307161
2212.0,0.308531
2214.0,0.306991
2216.0,0.304641
2218.0,0.303137
2220.0,0.306226
2222.0,0.309228
2224.0,0.308897
2226.0,0.308254
2228.0,0.308187
2230.0,0.308801
2232.0,0.309917
2234.0,0.309485
2236.0,0.308812
2238.0,0.307131
2240.0,0.303856
2242.0,0.303089
2244.0,0.308716
2246.0,0.310599
2248.0,0.307332
2250.0,0.307029
2252.0,0.307717
2254.0,0.306335
2256.0,0.306637
2258.0,0.304407
2260.0,0.305037
2262.0,0.308681
2264.0,0.309463
2266.0,0.308159
2268.0,0.306
2270.0,0.306424
2272.0,0.305166
2274.0,0.302581
2276.0,0.301258
2278.0,0.30192
2280.0,0.30151
2282.0,0.303729
2284.0,0.305426
2286.0,0.305371
2288.0,0.305364
2290.0,0.300702
2292.0,0.301706
2294.0,0.3042
2296.0,0.303249
2298.0,0.302389
2300.0,0.299767
2302.0,0.298899
2304.0,0.301259
2306.0,0.303571
2308.0,0.305238
2310.0,0.3088
2312.0,0.307128
2314.0,0.302514
2316.0,0.300803
2318.0,0.300198
2320.0,0.301062
2322.0,0.300859
2324.0,0.304571
2326.0,0.30349
2328.0,0.303627
2330.0,0.308149
2332.0,0.31138
2334.0,0.305944
2336.0,0.302867
2338.0,0.304586
2340.0,0.304917
2342.0,0.305115
2344.0,0.303491
2346.0,0.298822
2348.0,0.297543
2350.0,0.295583
2352.0,0.296531
2354.0,0.307305
2356.0,0.31289
2358.0,0.310317
2360.0,0.304803
2362.0,0.301664
2364.0,0.30627
2366.0,0.308488
2368.0,0.309288
2370.0,0.316487
2372.0,0.322176
2374.0,0.323284
2376.0,0.31639
2378.0,0.313048
2380.0,0.314624
2382.0,0.305395
2384.0,0.302352
2386.0,0.314364
2388.0,0.306605
2390.0,0.300373
2392.0,0.308837
2394.0,0.310606
2396.0,0.314437
2398.0,0.313058
2400.0,0.313408
2402.0,0.311872
2404.0,0.295955
2406.0,0.288075
2408.0,0.28448
2410.0,0.286558
2412.0,0.303492
2414.0,0.31642
2416.0,0.301542
2418.0,0.294577
2420.0,0.285185
2422.0,0.278645
2424.0,0.300669
2426.0,0.318144
2428.0,0.300935
2430.0,0.288225
2432.0,0.289403
2434.0,0.298693
2436.0,0.289755
2438.0,0.279487
2440.0,0.28498
2442.0,0.287893
2444.0,0.288994
2446.0,0.324199
2448.0,0.333023
2450.0,0.263597
2452.0,0.257746
2454.0,0.260482
2456.0,0.267488
2458.0,0.279942
2460.0,0.260607
2462.0,0.256531
2464.0,0.264815
2466.0,0.249782
2468.0,0.239961
2470.0,0.265338
2472.0,0.284506
2474.0,0.313192
2476.0,0.343687
2478.0,0.342045
2480.0,0.304366
2482.0,0.274596
2484.0,0.313566
2486.0,0.243855
2488.0,0.217559
2490.0,0.221839
2492.0,0.184311
2494.0,0.213595
2496.0,0.193286
2498.0,0.180861
2500.0,0.26446