File: data/spectra_ascii/AsphaltTrockenVerschmutzung1___corthum00393.txt
Wavelength (nm),Reflectance
350.0,0.0796676
352.0,0.0801068
354.0,0.0803836
356.0,0.081672
358.0,0.0814214
360.0,0.0828121
362.0,0.0826736
364.0,0.0831568
366.0,0.084377
368.0,0.084602
370.0,0.0858585
372.0,0.0859611
374.0,0.0868202
376.0,0.0881994
378.0,0.0884993
380.0,0.0895295
382.0,0.0901716
384.0,0.0911603
386.0,0.0919192
388.0,0.0931048
390.0,0.0937122
392.0,0.0944317
394.0,0.0950877
396.0,0.0959415
398.0,0.0966937
400.0,0.0973245
402.0,0.0980497
404.0,0.0986201
406.0,0.0993035
408.0,0.100092
410.0,0.100743
412.0,0.101441
414.0,0.102171
416.0,0.102991
418.0,0.103659
420.0,0.104436
422.0,0.105181
424.0,0.106048
426.0,0.106813
428.0,0.107667
430.0,0.108569
432.0,0.109462
434.0,0.110292
436.0,0.111173
438.0,0.111907
440.0,0.112759
442.0,0.113576
444.0,0.114345
446.0,0.115116
448.0,0.115833
450.0,0.116568
452.0,0.117192
454.0,0.11795
456.0,0.118525
458.0,0.119116
460.0,0.119745
462.0,0.120395
464.0,0.120965
466.0,0.121496
468.0,0.122121
470.0,0.122665
472.0,0.123249
474.0,0.123886
476.0,0.124363
478.0,0.124995
480.0,0.125746
482.0,0.126438
484.0,0.127116
486.0,0.127862
488.0,0.128727
490.0,0.129505
492.0,0.130267
494.0,0.131171
496.0,0.131931
498.0,0.132744
500.0,0.1337
502.0,0.13445
504.0,0.135314
506.0,0.136234
508.0,0.137091
510.0,0.137923
512.0,0.138855
514.0,0.139737
516.0,0.140636
518.0,0.141644
520.0,0.142617
522.0,0.143514
524.0,0.144453
526.0,0.145441
528.0,0.146567
530.0,0.147599
532.0,0.14869
534.0,0.14987
536.0,0.151045
538.0,0.152309
540.0,0.153623
542.0,0.155016
544.0,0.156334
546.0,0.157734
548.0,0.159209
550.0,0.16074
552.0,0.162325
554.0,0.163978
556.0,0.165687
558.0,0.167345
560.0,0.168951
562.0,0.170619
564.0,0.172254
566.0,0.173823
568.0,0.175454
570.0,0.17703
572.0,0.178601
574.0,0.180212
576.0,0.181638
578.0,0.183081
580.0,0.184569
582.0,0.185956
584.0,0.187252
586.0,0.188539
588.0,0.189796
590.0,0.19094
592.0,0.192025
594.0,0.193006
596.0,0.194159
598.0,0.19518
600.0,0.196101
602.0,0.197081
604.0,0.197946
606.0,0.198848
608.0,0.199768
610.0,0.200539
612.0,0.201423
614.0,0.202211
616.0,0.203019
618.0,0.20377
620.0,0.204459
622.0,0.205237
624.0,0.205983
626.0,0.206698
628.0,0.207432
630.0,0.208278
632.0,0.208982
634.0,0.209606
636.0,0.210385
638.0,0.211095
640.0,0.211791
642.0,0.212478
644.0,0.213231
646.0,0.213819
648.0,0.214502
650.0,0.215202
652.0,0.215846
654.0,0.216524
656.0,0.217145
658.0,0.217977
660.0,0.21853
662.0,0.219214
664.0,0.219834
666.0,0.220452
668.0,0.2211
670.0,0.221668
672.0,0.222324
674.0,0.222835
676.0,0.223529
678.0,0.224161
680.0,0.22475
682.0,0.225347
684.0,0.2259
686.0,0.226509
688.0,0.227028
690.0,0.227664
692.0,0.228302
694.0,0.228822
696.0,0.229479
698.0,0.230061
700.0,0.230602
702.0,0.231089
704.0,0.231704
706.0,0.232322
708.0,0.232905
710.0,0.233509
712.0,0.233975
714.0,0.234555
716.0,0.235209
718.0,0.235766
720.0,0.236312
722.0,0.236986
724.0,0.237538
726.0,0.238119
728.0,0.238731
730.0,0.239348
732.0,0.239992
734.0,0.240576
736.0,0.241162
738.0,0.241818
740.0,0.242477
742.0,0.243009
744.0,0.243665
746.0,0.244263
748.0,0.244855
750.0,0.245509
752.0,0.246141
754.0,0.246777
756.0,0.247351
758.0,0.248048
760.0,0.248081
762.0,0.248517
764.0,0.249271
766.0,0.250294
768.0,0.250856
770.0,0.251428
772.0,0.252018
774.0,0.252533
776.0,0.253036
778.0,0.253628
780.0,0.254068
782.0,0.254646
784.0,0.255156
786.0,0.255679
788.0,0.256142
790.0,0.256729
792.0,0.257243
794.0,0.257709
796.0,0.258187
798.0,0.258714
800.0,0.259134
802.0,0.259619
804.0,0.260123
806.0,0.260544
808.0,0.260997
810.0,0.26151
812.0,0.262035
814.0,0.262371
816.0,0.262745
818.0,0.263302
820.0,0.263682
822.0,0.264196
824.0,0.264469
826.0,0.26492
828.0,0.265444
830.0,0.265779
832.0,0.266179
834.0,0.266646
836.0,0.267055
838.0,0.267515
840.0,0.267785
842.0,0.26815
844.0,0.268517
846.0,0.268961
848.0,0.269453
850.0,0.269753
852.0,0.270062
854.0,0.270523
856.0,0.270952
858.0,0.271203
860.0,0.271601
862.0,0.272032
864.0,0.272291
866.0,0.272752
868.0,0.27298
870.0,0.273324
872.0,0.273647
874.0,0.274125
876.0,0.274459
878.0,0.274824
880.0,0.275194
882.0,0.275566
884.0,0.275874
886.0,0.27637
888.0,0.276613
890.0,0.276945
892.0,0.277543
894.0,0.27753
896.0,0.277843
898.0,0.278134
900.0,0.27864
902.0,0.278916
904.0,0.279406
906.0,0.279838
908.0,0.280223
910.0,0.280072
912.0,0.280709
914.0,0.281114
916.0,0.281408
918.0,0.282053
920.0,0.282212
922.0,0.282628
924.0,0.282777
926.0,0.282858
928.0,0.283198
930.0,0.282468
932.0,0.281973
934.0,0.281512
936.0,0.282115
938.0,0.283402
940.0,0.283401
942.0,0.283741
944.0,0.28352
946.0,0.283805
948.0,0.28463
950.0,0.28458
952.0,0.285432
954.0,0.286567
956.0,0.286649
958.0,0.287376
960.0,0.287837
962.0,0.28818
964.0,0.289053
966.0,0.289118
968.0,0.289189
970.0,0.290349
972.0,0.291
974.0,0.290296
976.0,0.290818
978.0,0.291411
980.0,0.292018
982.0,0.292495
984.0,0.292372
986.0,0.292189
988.0,0.292823
990.0,0.293157
992.0,0.293587
994.0,0.293353
996.0,0.293484
998.0,0.294182
1000.0,0.294289
1002.0,0.298591
1004.0,0.299037
1006.0,0.299602
1008.0,0.299792
1010.0,0.299907
1012.0,0.300752
1014.0,0.300673
1016.0,0.300141
1018.0,0.300453
1020.0,0.30078
1022.0,0.300449
1024.0,0.300885
1026.0,0.301715
1028.0,0.302123
1030.0,0.301721
1032.0,0.301528
1034.0,0.301997
1036.0,0.301793
1038.0,0.302213
1040.0,0.302233
1042.0,0.302366
1044.0,0.302772
1046.0,0.302649
1048.0,0.302994
1050.0,0.30357
1052.0,0.303764
1054.0,0.303657
1056.0,0.303585
1058.0,0.303398
1060.0,0.303807
1062.0,0.304024
1064.0,0.304058
1066.0,0.304662
1068.0,0.305234
1070.0,0.305251
1072.0,0.305013
1074.0,0.304965
1076.0,0.304911
1078.0,0.30518
1080.0,0.305673
1082.0,0.306333
1084.0,0.306155
1086.0,0.306145
1088.0,0.306922
1090.0,0.307009
1092.0,0.307328
1094.0,0.307549
1096.0,0.307636
1098.0,0.307223
1100.0,0.307205
1102.0,0.307161
1104.0,0.307195
1106.0,0.307093
1108.0,0.306977
1110.0,0.307226
1112.0,0.307321
1114.0,0.307541
1116.0,0.307777
1118.0,0.307636
1120.0,0.307047
1122.0,0.307168
1124.0,0.30671
1126.0,0.305907
1128.0,0.306671
1130.0,0.308
1132.0,0.308375
1134.0,0.307653
1136.0,0.307896
1138.0,0.30856
1140.0,0.309407
1142.0,0.310581
1144.0,0.311156
1146.0,0.310426
1148.0,0.310097
1150.0,0.310619
1152.0,0.311859
1154.0,0.31276
1156.0,0.313031
1158.0,0.312777
1160.0,0.312962
1162.0,0.313532
1164.0,0.313796
1166.0,0.31363
1168.0,0.313672
1170.0,0.314033
1172.0,0.314497
1174.0,0.314895
1176.0,0.315029
1178.0,0.315062
1180.0,0.315007
1182.0,0.315253
1184.0,0.315669
1186.0,0.315864
1188.0,0.315918
1190.0,0.316023
1192.0,0.316429
1194.0,0.316818
1196.0,0.316972
1198.0,0.316941
1200.0,0.316976
1202.0,0.317009
1204.0,0.316997
1206.0,0.317209
1208.0,0.317761
1210.0,0.3179
1212.0,0.317706
1214.0,0.318177
1216.0,0.318015
1218.0,0.317678
1220.0,0.31774
1222.0,0.317652
1224.0,0.31782
1226.0,0.318026
1228.0,0.318233
1230.0,0.318368
1232.0,0.318388
1234.0,0.318421
1236.0,0.318512
1238.0,0.318258
1240.0,0.318104
1242.0,0.318198
1244.0,0.318151
1246.0,0.318176
1248.0,0.318436
1250.0,0.318745
1252.0,0.318863
1254.0,0.3185
1256.0,0.318302
1258.0,0.318314
1260.0,0.31823
1262.0,0.318259
1264.0,0.318566
1266.0,0.318696
1268.0,0.318861
1270.0,0.318649
1272.0,0.318567
1274.0,0.318959
1276.0,0.319645
1278.0,0.319926
1280.0,0.319539
1282.0,0.319583
1284.0,0.319772
1286.0,0.319583
1288.0,0.319941
1290.0,0.320123
1292.0,0.319948
1294.0,0.319967
1296.0,0.320206
1298.0,0.320147
1300.0,0.320261
1302.0,0.320562
1304.0,0.32052
1306.0,0.32033
1308.0,0.320228
1310.0,0.320282
1312.0,0.320544
1314.0,0.321075
1316.0,0.321435
1318.0,0.321568
1320.0,0.321261
1322.0,0.321051
1324.0,0.321172
1326.0,0.321288
1328.0,0.321426
1330.0,0.321686
1332.0,0.321651
1334.0,0.321685
1336.0,0.321807
1338.0,0.321833
1340.0,0.322546
1342.0,0.322472
1344.0,0.322487
1346.0,0.322228
1348.0,0.319862
1350.0,0.31783
1352.0,0.317267
1354.0,0.318686
1356.0,0.325546
1358.0,0.341316
1360.0,0.342313
1362.0,0.326788
1364.0,0.314858
1366.0,0.249388
1368.0,0.228572
1370.0,0.292827
1372.0,0.334169
1374.0,0.355365
1376.0,0.360039
1378.0,0.33018
1380.0,0.313884
1382.0,0.314829
1384.0,0.316112
1386.0,0.282567
1388.0,0.276302
1390.0,0.275776
1392.0,0.277477
1394.0,0.289606
1396.0,0.306324
1398.0,0.311228
1400.0,0.301738
1402.0,0.301417
1404.0,0.304482
1406.0,0.309535
1408.0,0.305491
1410.0,0.309921
1412.0,0.313814
1414.0,0.315759
1416.0,0.316463
1418.0,0.315931
1420.0,0.316981
1422.0,0.319585
1424.0,0.321517
1426.0,0.322661
1428.0,0.322855
1430.0,0.323036
1432.0,0.323718
1434.0,0.324858
1436.0,0.325565
1438.0,0.324736
1440.0,0.322336
1442.0,0.321852
1444.0,0.323246
1446.0,0.324268
1448.0,0.32434
1450.0,0.324641
1452.0,0.326245
1454.0,0.326902
1456.0,0.32706
1458.0,0.327834
1460.0,0.327859
1462.0,0.327243
1464.0,0.327699
1466.0,0.328245
1468.0,0.328403
1470.0,0.328142
1472.0,0.328416
1474.0,0.329422
1476.0,0.329064
1478.0,0.328657
1480.0,0.329193
1482.0,0.330718
1484.0,0.331383
1486.0,0.330859
1488.0,0.331171
1490.0,0.331898
1492.0,0.332622
1494.0,0.332534
1496.0,0.332153
1498.0,0.332554
1500.0,0.332792
1502.0,0.332692
1504.0,0.33262
1506.0,0.332978
1508.0,0.33324
1510.0,0.333094
1512.0,0.333084
1514.0,0.332837
1516.0,0.332764
1518.0,0.332988
1520.0,0.333085
1522.0,0.333083
1524.0,0.333347
1526.0,0.333965
1528.0,0.334008
1530.0,0.333572
1532.0,0.333143
1534.0,0.333482
1536.0,0.333737
1538.0,0.333835
1540.0,0.334159
1542.0,0.334284
1544.0,0.334105
1546.0,0.334009
1548.0,0.334039
1550.0,0.334213
1552.0,0.334308
1554.0,0.33395
1556.0,0.33352
1558.0,0.333913
1560.0,0.334407
1562.0,0.334529
1564.0,0.334268
1566.0,0.333876
1568.0,0.333809
1570.0,0.333874
1572.0,0.3333
1574.0,0.333016
1576.0,0.332979
1578.0,0.332895
1580.0,0.333794
1582.0,0.334032
1584.0,0.333496
1586.0,0.333703
1588.0,0.334027
1590.0,0.333927
1592.0,0.333711
1594.0,0.333541
1596.0,0.333379
1598.0,0.333252
1600.0,0.333073
1602.0,0.33292
1604.0,0.333182
1606.0,0.333696
1608.0,0.333439
1610.0,0.333098
1612.0,0.333037
1614.0,0.332985
1616.0,0.332905
1618.0,0.332864
1620.0,0.333107
1622.0,0.332723
1624.0,0.331929
1626.0,0.332106
1628.0,0.332226
1630.0,0.332305
1632.0,0.332432
1634.0,0.33183
1636.0,0.331949
1638.0,0.331798
1640.0,0.331485
1642.0,0.33151
1644.0,0.331293
1646.0,0.33092
1648.0,0.330377
1650.0,0.33092
1652.0,0.331463
1654.0,0.331589
1656.0,0.331254
1658.0,0.330934
1660.0,0.331017
1662.0,0.331065
1664.0,0.330476
1666.0,0.330149
1668.0,0.330188
1670.0,0.330463
1672.0,0.331204
1674.0,0.331183
1676.0,0.331253
1678.0,0.331833
1680.0,0.332053
1682.0,0.331893
1684.0,0.33286
1686.0,0.333232
1688.0,0.332752
1690.0,0.332578
1692.0,0.33306
1694.0,0.333363
1696.0,0.333203
1698.0,0.332771
1700.0,0.333021
1702.0,0.333773
1704.0,0.333851
1706.0,0.333934
1708.0,0.333666
1710.0,0.334353
1712.0,0.33466
1714.0,0.333973
1716.0,0.333685
1718.0,0.333944
1720.0,0.334363
1722.0,0.334304
1724.0,0.334259
1726.0,0.334329
1728.0,0.334076
1730.0,0.332971
1732.0,0.333548
1734.0,0.334883
1736.0,0.33351
1738.0,0.333459
1740.0,0.333475
1742.0,0.333331
1744.0,0.333518
1746.0,0.333207
1748.0,0.333416
1750.0,0.333393
1752.0,0.333459
1754.0,0.333201
1756.0,0.332928
1758.0,0.333531
1760.0,0.333474
1762.0,0.333405
1764.0,0.333279
1766.0,0.332908
1768.0,0.332646
1770.0,0.331733
1772.0,0.332164
1774.0,0.333575
1776.0,0.333317
1778.0,0.333158
1780.0,0.332682
1782.0,0.332315
1784.0,0.332611
1786.0,0.333628
1788.0,0.334556
1790.0,0.33401
1792.0,0.33298
1794.0,0.330951
1796.0,0.329756
1798.0,0.331719
1800.0,0.330506
1802.0,0.334582
1804.0,0.332083
1806.0,0.333512
1808.0,0.330815
1810.0,0.335075
1812.0,0.33486
1814.0,0.333239
1816.0,0.34574
1818.0,0.386451
1820.0,0.400522
1822.0,0.331897
1824.0,0.34064
1826.0,0.433908
1828.0,0.436098
1830.0,0.364829
1832.0,0.272749
1834.0,0.214032
1836.0,0.151929
1838.0,0.205768
1840.0,0.370233
1842.0,1.0
1844.0,0.0
1846.0,0.0
1848.0,0.0
1850.0,0.0
1852.0,0.417424
1854.0,0.168175
1856.0,0.308237
1858.0,1.0
1860.0,1.0
1862.0,0.46514
1864.0,0.268343
1866.0,0.170793
1868.0,0.410488
1870.0,1.0
1872.0,0.176972
1874.0,0.0
1876.0,0.176031
1878.0,0.562444
1880.0,0.561894
1882.0,0.398885
1884.0,0.275009
1886.0,0.384893
1888.0,0.452062
1890.0,0.71819
1892.0,0.611872
1894.0,0.450102
1896.0,0.521173
1898.0,0.411911
1900.0,0.301148
1902.0,0.483975
1904.0,0.497024
1906.0,0.200798
1908.0,0.0610232
1910.0,0.153296
1912.0,0.749339
1914.0,1.0
1916.0,0.497974
1918.0,0.317477
1920.0,0.273103
1922.0,0.247996
1924.0,0.254764
1926.0,0.249748
1928.0,0.260877
1930.0,0.310022
1932.0,0.296143
1934.0,0.282752
1936.0,0.315227
1938.0,0.324741
1940.0,0.306907
1942.0,0.307169
1944.0,0.314687
1946.0,0.319183
1948.0,0.319909
1950.0,0.316605
1952.0,0.322332
1954.0,0.317982
1956.0,0.329527
1958.0,0.335918
1960.0,0.315775
1962.0,0.316464
1964.0,0.325929
1966.0,0.324648
1968.0,0.323656
1970.0,0.320315
1972.0,0.32182
1974.0,0.325618
1976.0,0.325186
1978.0,0.325089
1980.0,0.326006
1982.0,0.327601
1984.0,0.327658
1986.0,0.32715
1988.0,0.326079
1990.0,0.325298
1992.0,0.324145
1994.0,0.32421
1996.0,0.324513
1998.0,0.325627
2000.0,0.327263
2002.0,0.336272
2004.0,0.34078
2006.0,0.338936
2008.0,0.33011
2010.0,0.317032
2012.0,0.311746
2014.0,0.324443
2016.0,0.334231
2018.0,0.336417
2020.0,0.334523
2022.0,0.33303
2024.0,0.332404
2026.0,0.331017
2028.0,0.331844
2030.0,0.333559
2032.0,0.332858
2034.0,0.332686
2036.0,0.333759
2038.0,0.335364
2040.0,0.336034
2042.0,0.336938
2044.0,0.337514
2046.0,0.3371
2048.0,0.336159
2050.0,0.337575
2052.0,0.339965
2054.0,0.337547
2056.0,0.336074
2058.0,0.336779
2060.0,0.337416
2062.0,0.336492
2064.0,0.335458
2066.0,0.336424
2068.0,0.338633
2070.0,0.337289
2072.0,0.334171
2074.0,0.335348
2076.0,0.338801
2078.0,0.341544
2080.0,0.340764
2082.0,0.340887
2084.0,0.342629
2086.0,0.342369
2088.0,0.341985
2090.0,0.343769
2092.0,0.343582
2094.0,0.341325
2096.0,0.338275
2098.0,0.338397
2100.0,0.339691
2102.0,0.341699
2104.0,0.343106
2106.0,0.345027
2108.0,0.345329
2110.0,0.344965
2112.0,0.344428
2114.0,0.342368
2116.0,0.339488
2118.0,0.340067
2120.0,0.342345
2122.0,0.342581
2124.0,0.344353
2126.0,0.344703
2128.0,0.343892
2130.0,0.344178
2132.0,0.344338
2134.0,0.343139
2136.0,0.342457
2138.0,0.342896
2140.0,0.343592
2142.0,0.344457
2144.0,0.344431
2146.0,0.343115
2148.0,0.341441
2150.0,0.340508
2152.0,0.341598
2154.0,0.342097
2156.0,0.340971
2158.0,0.340392
2160.0,0.339268
2162.0,0.33793
2164.0,0.338214
2166.0,0.338936
2168.0,0.339702
2170.0,0.340342
2172.0,0.338085
2174.0,0.334381
2176.0,0.332593
2178.0,0.332135
2180.0,0.33384
2182.0,0.334806
2184.0,0.332387
2186.0,0.331115
2188.0,0.331241
2190.0,0.331639
2192.0,0.33252
2194.0,0.331538
2196.0,0.329414
2198.0,0.331692
2200.0,0.333522
2202.0,0.329087
2204.0,0.327433
2206.0,0.327551
2208.0,0.326959
2210.0,0.326109
2212.0,0.325201
2214.0,0.324572
2216.0,0.323552
2218.0,0.322388
2220.0,0.325954
2222.0,0.329196
2224.0,0.328844
2226.0,0.329794
2228.0,0.330379
2230.0,0.328768
2232.0,0.327938
2234.0,0.329311
2236.0,0.330058
2238.0,0.327994
2240.0,0.3251
2242.0,0.32199
2244.0,0.323528
2246.0,0.324418
2248.0,0.324929
2250.0,0.324335
2252.0,0.323731
2254.0,0.32266
2256.0,0.323182
2258.0,0.322865
2260.0,0.32594
2262.0,0.329359
2264.0,0.326307
2266.0,0.3243
2268.0,0.324814
2270.0,0.328657
2272.0,0.331562
2274.0,0.329603
2276.0,0.325278
2278.0,0.322837
2280.0,0.323038
2282.0,0.325118
2284.0,0.325817
2286.0,0.327671
2288.0,0.329184
2290.0,0.324117
2292.0,0.322686
2294.0,0.325756
2296.0,0.325909
2298.0,0.323512
2300.0,0.319016
2302.0,0.319616
2304.0,0.323934
2306.0,0.327061
2308.0,0.328463
2310.0,0.331358
2312.0,0.331705
2314.0,0.325566
2316.0,0.320466
2318.0,0.316823
2320.0,0.318414
2322.0,0.323555
2324.0,0.322428
2326.0,0.320526
2328.0,0.320718
2330.0,0.324861
2332.0,0.328522
2334.0,0.328325
2336.0,0.326619
2338.0,0.326984
2340.0,0.324072
2342.0,0.325103
2344.0,0.324575
2346.0,0.318048
2348.0,0.318006
2350.0,0.319937
2352.0,0.321396
2354.0,0.325031
2356.0,0.326914
2358.0,0.332019
2360.0,0.334329
2362.0,0.327175
2364.0,0.325106
2366.0,0.324898
2368.0,0.322468
2370.0,0.326107
2372.0,0.332799
2374.0,0.330689
2376.0,0.324346
2378.0,0.331869
2380.0,0.33977
2382.0,0.333609
2384.0,0.329792
2386.0,0.33303
2388.0,0.329951
2390.0,0.326337
2392.0,0.322687
2394.0,0.322928
2396.0,0.331017
2398.0,0.332448
2400.0,0.326808
2402.0,0.326687
2404.0,0.318695
2406.0,0.307977
2408.0,0.307264
2410.0,0.31836
2412.0,0.341742
2414.0,0.353589
2416.0,0.342917
2418.0,0.340522
2420.0,0.327552
2422.0,0.31261
2424.0,0.32178
2426.0,0.322964
2428.0,0.311924
2430.0,0.302266
2432.0,0.29469
2434.0,0.310908
2436.0,0.307793
2438.0,0.307748
2440.0,0.322423
2442.0,0.305315
2444.0,0.275271
2446.0,0.277142
2448.0,0.316647
2450.0,0.332661
2452.0,0.35885
2454.0,0.31555
2456.0,0.294454
2458.0,0.329305
2460.0,0.330471
2462.0,0.320359
2464.0,0.31465
2466.0,0.294543
2468.0,0.308705
2470.0,0.310767
2472.0,0.308622
2474.0,0.348122
2476.0,0.318303
2478.0,0.285001
2480.0,0.267368
2482.0,0.277214
2484.0,0.337593
2486.0,0.364193
2488.0,0.310402
2490.0,0.182493
2492.0,0.204895
2494.0,0.352793
2496.0,0.319122
2498.0,0.311121
2500.0,0.433399