File: data/spectra_ascii/AsphaltTrockenVerschmutzung2___corthum00449.txt
Wavelength (nm),Reflectance
350.0,0.0791437
352.0,0.0802136
354.0,0.0799443
356.0,0.0803495
358.0,0.0809736
360.0,0.0814282
362.0,0.0820883
364.0,0.0822529
366.0,0.0826724
368.0,0.0835415
370.0,0.0840818
372.0,0.0846818
374.0,0.0852454
376.0,0.086
378.0,0.0866444
380.0,0.0875705
382.0,0.0884301
384.0,0.0891425
386.0,0.0895959
388.0,0.0903098
390.0,0.0908145
392.0,0.0913609
394.0,0.0920744
396.0,0.0929169
398.0,0.0937802
400.0,0.0942344
402.0,0.094844
404.0,0.0952417
406.0,0.0957917
408.0,0.0965379
410.0,0.0970485
412.0,0.0976606
414.0,0.0982288
416.0,0.0988411
418.0,0.0995242
420.0,0.100088
422.0,0.100739
424.0,0.101436
426.0,0.102124
428.0,0.10293
430.0,0.103681
432.0,0.104484
434.0,0.105284
436.0,0.105972
438.0,0.106648
440.0,0.107378
442.0,0.108079
444.0,0.108721
446.0,0.109337
448.0,0.109888
450.0,0.110603
452.0,0.11115
454.0,0.111783
456.0,0.112353
458.0,0.112903
460.0,0.113451
462.0,0.113864
464.0,0.114385
466.0,0.114936
468.0,0.115372
470.0,0.115946
472.0,0.116469
474.0,0.116963
476.0,0.117529
478.0,0.117987
480.0,0.118587
482.0,0.119228
484.0,0.119724
486.0,0.120418
488.0,0.121053
490.0,0.121662
492.0,0.122355
494.0,0.123025
496.0,0.123665
498.0,0.124445
500.0,0.125132
502.0,0.12581
504.0,0.126513
506.0,0.127238
508.0,0.127875
510.0,0.128606
512.0,0.129245
514.0,0.130012
516.0,0.130764
518.0,0.131567
520.0,0.132324
522.0,0.133018
524.0,0.133806
526.0,0.134577
528.0,0.135436
530.0,0.136281
532.0,0.137172
534.0,0.138093
536.0,0.139047
538.0,0.140018
540.0,0.141029
542.0,0.142173
544.0,0.143164
546.0,0.144258
548.0,0.145371
550.0,0.14652
552.0,0.147761
554.0,0.148991
556.0,0.150239
558.0,0.151544
560.0,0.152827
562.0,0.154077
564.0,0.155224
566.0,0.156443
568.0,0.157647
570.0,0.158826
572.0,0.159982
574.0,0.161063
576.0,0.16217
578.0,0.163285
580.0,0.164217
582.0,0.165279
584.0,0.166245
586.0,0.167237
588.0,0.168196
590.0,0.169116
592.0,0.169991
594.0,0.170792
596.0,0.17162
598.0,0.17234
600.0,0.173096
602.0,0.173801
604.0,0.174537
606.0,0.17528
608.0,0.175892
610.0,0.176614
612.0,0.177278
614.0,0.177962
616.0,0.178617
618.0,0.179205
620.0,0.179831
622.0,0.180495
624.0,0.181107
626.0,0.181706
628.0,0.182403
630.0,0.182919
632.0,0.183538
634.0,0.18413
636.0,0.184718
638.0,0.185253
640.0,0.185808
642.0,0.186444
644.0,0.187007
646.0,0.187544
648.0,0.188051
650.0,0.188651
652.0,0.189109
654.0,0.189612
656.0,0.19022
658.0,0.190636
660.0,0.191118
662.0,0.191627
664.0,0.192086
666.0,0.192548
668.0,0.193001
670.0,0.193448
672.0,0.193878
674.0,0.194362
676.0,0.194807
678.0,0.195259
680.0,0.19564
682.0,0.196077
684.0,0.196559
686.0,0.197029
688.0,0.197652
690.0,0.197984
692.0,0.198338
694.0,0.198775
696.0,0.199051
698.0,0.199433
700.0,0.199924
702.0,0.200261
704.0,0.200702
706.0,0.200999
708.0,0.201384
710.0,0.201755
712.0,0.202155
714.0,0.202554
716.0,0.203082
718.0,0.20368
720.0,0.204084
722.0,0.204339
724.0,0.204812
726.0,0.205283
728.0,0.205698
730.0,0.206108
732.0,0.206475
734.0,0.20678
736.0,0.207235
738.0,0.207649
740.0,0.208073
742.0,0.208529
744.0,0.208977
746.0,0.209371
748.0,0.209828
750.0,0.210285
752.0,0.210762
754.0,0.211186
756.0,0.211712
758.0,0.212223
760.0,0.212948
762.0,0.213892
764.0,0.214205
766.0,0.214312
768.0,0.214528
770.0,0.21473
772.0,0.215047
774.0,0.21547
776.0,0.215937
778.0,0.216324
780.0,0.216704
782.0,0.217146
784.0,0.217521
786.0,0.217857
788.0,0.218234
790.0,0.218689
792.0,0.219075
794.0,0.219403
796.0,0.21982
798.0,0.220124
800.0,0.220469
802.0,0.220869
804.0,0.221157
806.0,0.221514
808.0,0.221859
810.0,0.22227
812.0,0.222711
814.0,0.223093
816.0,0.223443
818.0,0.223757
820.0,0.223983
822.0,0.22432
824.0,0.224615
826.0,0.224832
828.0,0.225239
830.0,0.225411
832.0,0.225782
834.0,0.226058
836.0,0.226171
838.0,0.22646
840.0,0.226758
842.0,0.226978
844.0,0.227248
846.0,0.227583
848.0,0.227768
850.0,0.228008
852.0,0.228338
854.0,0.228594
856.0,0.228818
858.0,0.229038
860.0,0.229268
862.0,0.229542
864.0,0.229682
866.0,0.23006
868.0,0.230259
870.0,0.230356
872.0,0.230724
874.0,0.230872
876.0,0.231114
878.0,0.231284
880.0,0.231671
882.0,0.231765
884.0,0.23194
886.0,0.232478
888.0,0.232595
890.0,0.232902
892.0,0.233131
894.0,0.233522
896.0,0.233744
898.0,0.234194
900.0,0.234145
902.0,0.234488
904.0,0.234687
906.0,0.234651
908.0,0.234975
910.0,0.235572
912.0,0.235472
914.0,0.235672
916.0,0.236261
918.0,0.236358
920.0,0.236175
922.0,0.236598
924.0,0.236995
926.0,0.237266
928.0,0.236985
930.0,0.236493
932.0,0.236349
934.0,0.235943
936.0,0.236242
938.0,0.236967
940.0,0.237215
942.0,0.237442
944.0,0.237183
946.0,0.238651
948.0,0.237658
950.0,0.238345
952.0,0.23871
954.0,0.23885
956.0,0.238966
958.0,0.2385
960.0,0.239531
962.0,0.239781
964.0,0.239969
966.0,0.240305
968.0,0.241068
970.0,0.240518
972.0,0.241389
974.0,0.240496
976.0,0.240634
978.0,0.240899
980.0,0.241276
982.0,0.241718
984.0,0.241499
986.0,0.242604
988.0,0.241629
990.0,0.241913
992.0,0.241866
994.0,0.242209
996.0,0.242201
998.0,0.241984
1000.0,0.241818
1002.0,0.246614
1004.0,0.246541
1006.0,0.246885
1008.0,0.247279
1010.0,0.247539
1012.0,0.247168
1014.0,0.247281
1016.0,0.247317
1018.0,0.247894
1020.0,0.248055
1022.0,0.247822
1024.0,0.248031
1026.0,0.248148
1028.0,0.247873
1030.0,0.248195
1032.0,0.248488
1034.0,0.24859
1036.0,0.248319
1038.0,0.248573
1040.0,0.249125
1042.0,0.249176
1044.0,0.249198
1046.0,0.248983
1048.0,0.249309
1050.0,0.249256
1052.0,0.249241
1054.0,0.249607
1056.0,0.249812
1058.0,0.249724
1060.0,0.249606
1062.0,0.249627
1064.0,0.24986
1066.0,0.249807
1068.0,0.249789
1070.0,0.250087
1072.0,0.250489
1074.0,0.25065
1076.0,0.250654
1078.0,0.250566
1080.0,0.250536
1082.0,0.250689
1084.0,0.25073
1086.0,0.250527
1088.0,0.250823
1090.0,0.251152
1092.0,0.251308
1094.0,0.25134
1096.0,0.251728
1098.0,0.251934
1100.0,0.252013
1102.0,0.251718
1104.0,0.251554
1106.0,0.251934
1108.0,0.252057
1110.0,0.252051
1112.0,0.252413
1114.0,0.252765
1116.0,0.253083
1118.0,0.253284
1120.0,0.25287
1122.0,0.253402
1124.0,0.253727
1126.0,0.254301
1128.0,0.253626
1130.0,0.253404
1132.0,0.252976
1134.0,0.252682
1136.0,0.252905
1138.0,0.253557
1140.0,0.253938
1142.0,0.253856
1144.0,0.254075
1146.0,0.254063
1148.0,0.2541
1150.0,0.25424
1152.0,0.254137
1154.0,0.253817
1156.0,0.254377
1158.0,0.254674
1160.0,0.254715
1162.0,0.25452
1164.0,0.254413
1166.0,0.254873
1168.0,0.254973
1170.0,0.254927
1172.0,0.255283
1174.0,0.255441
1176.0,0.255283
1178.0,0.255432
1180.0,0.255767
1182.0,0.25585
1184.0,0.256002
1186.0,0.256137
1188.0,0.256239
1190.0,0.256376
1192.0,0.256716
1194.0,0.256638
1196.0,0.256604
1198.0,0.256846
1200.0,0.25673
1202.0,0.256431
1204.0,0.256553
1206.0,0.256898
1208.0,0.25683
1210.0,0.256836
1212.0,0.256938
1214.0,0.257053
1216.0,0.257229
1218.0,0.257154
1220.0,0.257043
1222.0,0.257057
1224.0,0.257105
1226.0,0.257236
1228.0,0.25733
1230.0,0.257332
1232.0,0.257112
1234.0,0.256862
1236.0,0.256846
1238.0,0.256991
1240.0,0.256847
1242.0,0.256696
1244.0,0.256925
1246.0,0.257158
1248.0,0.257253
1250.0,0.257461
1252.0,0.257631
1254.0,0.257669
1256.0,0.257619
1258.0,0.257804
1260.0,0.25792
1262.0,0.257732
1264.0,0.257526
1266.0,0.257464
1268.0,0.257538
1270.0,0.257836
1272.0,0.257722
1274.0,0.257612
1276.0,0.257631
1278.0,0.257592
1280.0,0.25755
1282.0,0.257564
1284.0,0.257708
1286.0,0.257984
1288.0,0.258146
1290.0,0.258068
1292.0,0.258017
1294.0,0.258272
1296.0,0.25843
1298.0,0.258314
1300.0,0.258092
1302.0,0.258012
1304.0,0.258232
1306.0,0.258297
1308.0,0.258682
1310.0,0.258902
1312.0,0.258703
1314.0,0.258557
1316.0,0.258696
1318.0,0.258767
1320.0,0.258825
1322.0,0.259086
1324.0,0.259359
1326.0,0.259568
1328.0,0.259845
1330.0,0.259985
1332.0,0.259828
1334.0,0.259819
1336.0,0.259983
1338.0,0.260667
1340.0,0.26097
1342.0,0.261484
1344.0,0.262632
1346.0,0.263073
1348.0,0.262756
1350.0,0.261957
1352.0,0.262334
1354.0,0.26597
1356.0,0.267551
1358.0,0.271106
1360.0,0.265006
1362.0,0.346843
1364.0,0.5383
1366.0,0.462277
1368.0,0.319694
1370.0,0.353556
1372.0,0.366696
1374.0,0.456387
1376.0,0.322893
1378.0,0.296235
1380.0,0.365976
1382.0,0.400404
1384.0,0.39783
1386.0,0.351733
1388.0,0.299505
1390.0,0.318211
1392.0,0.301426
1394.0,0.289802
1396.0,0.26946
1398.0,0.252643
1400.0,0.257552
1402.0,0.277003
1404.0,0.273846
1406.0,0.258733
1408.0,0.265035
1410.0,0.266066
1412.0,0.262319
1414.0,0.259267
1416.0,0.259195
1418.0,0.26238
1420.0,0.260821
1422.0,0.258131
1424.0,0.25909
1426.0,0.259996
1428.0,0.262113
1430.0,0.26263
1432.0,0.261719
1434.0,0.261477
1436.0,0.262723
1438.0,0.262991
1440.0,0.262629
1442.0,0.262245
1444.0,0.262001
1446.0,0.262272
1448.0,0.262107
1450.0,0.261984
1452.0,0.262269
1454.0,0.263604
1456.0,0.263891
1458.0,0.263654
1460.0,0.263857
1462.0,0.263959
1464.0,0.264219
1466.0,0.263832
1468.0,0.262964
1470.0,0.262737
1472.0,0.263155
1474.0,0.263583
1476.0,0.264154
1478.0,0.264436
1480.0,0.264026
1482.0,0.263779
1484.0,0.264189
1486.0,0.264511
1488.0,0.264731
1490.0,0.264421
1492.0,0.264732
1494.0,0.265038
1496.0,0.265087
1498.0,0.265331
1500.0,0.265059
1502.0,0.264682
1504.0,0.264686
1506.0,0.264891
1508.0,0.264981
1510.0,0.265157
1512.0,0.265095
1514.0,0.264986
1516.0,0.265221
1518.0,0.265181
1520.0,0.265141
1522.0,0.265393
1524.0,0.265278
1526.0,0.265474
1528.0,0.265493
1530.0,0.265634
1532.0,0.265675
1534.0,0.265572
1536.0,0.265483
1538.0,0.26556
1540.0,0.265365
1542.0,0.265407
1544.0,0.265355
1546.0,0.26525
1548.0,0.265166
1550.0,0.264928
1552.0,0.265063
1554.0,0.265311
1556.0,0.265176
1558.0,0.265218
1560.0,0.265235
1562.0,0.265145
1564.0,0.26529
1566.0,0.265504
1568.0,0.26547
1570.0,0.265222
1572.0,0.265119
1574.0,0.265335
1576.0,0.265254
1578.0,0.265274
1580.0,0.265498
1582.0,0.265337
1584.0,0.265309
1586.0,0.26544
1588.0,0.265198
1590.0,0.264994
1592.0,0.264936
1594.0,0.265061
1596.0,0.265103
1598.0,0.264868
1600.0,0.264667
1602.0,0.264282
1604.0,0.263961
1606.0,0.264199
1608.0,0.264675
1610.0,0.264673
1612.0,0.26411
1614.0,0.263233
1616.0,0.263211
1618.0,0.263373
1620.0,0.262933
1622.0,0.262992
1624.0,0.263252
1626.0,0.263503
1628.0,0.26386
1630.0,0.263853
1632.0,0.263178
1634.0,0.262801
1636.0,0.262688
1638.0,0.262394
1640.0,0.262023
1642.0,0.262173
1644.0,0.262429
1646.0,0.262135
1648.0,0.26211
1650.0,0.262393
1652.0,0.262167
1654.0,0.261712
1656.0,0.2613
1658.0,0.261579
1660.0,0.26159
1662.0,0.261409
1664.0,0.261755
1666.0,0.261779
1668.0,0.262113
1670.0,0.262213
1672.0,0.261623
1674.0,0.261323
1676.0,0.261528
1678.0,0.262131
1680.0,0.262195
1682.0,0.261939
1684.0,0.262703
1686.0,0.263003
1688.0,0.262689
1690.0,0.2625
1692.0,0.262247
1694.0,0.262245
1696.0,0.262286
1698.0,0.262866
1700.0,0.263403
1702.0,0.263076
1704.0,0.26293
1706.0,0.262879
1708.0,0.262698
1710.0,0.262528
1712.0,0.262476
1714.0,0.262509
1716.0,0.262378
1718.0,0.261855
1720.0,0.262286
1722.0,0.262518
1724.0,0.262724
1726.0,0.262946
1728.0,0.262385
1730.0,0.261872
1732.0,0.261967
1734.0,0.262571
1736.0,0.261965
1738.0,0.261932
1740.0,0.262793
1742.0,0.263724
1744.0,0.263934
1746.0,0.263426
1748.0,0.263321
1750.0,0.263156
1752.0,0.263081
1754.0,0.263174
1756.0,0.261665
1758.0,0.261867
1760.0,0.263467
1762.0,0.263613
1764.0,0.26375
1766.0,0.263428
1768.0,0.263346
1770.0,0.262193
1772.0,0.261547
1774.0,0.26195
1776.0,0.261969
1778.0,0.2627
1780.0,0.262633
1782.0,0.262276
1784.0,0.262505
1786.0,0.261667
1788.0,0.262029
1790.0,0.263439
1792.0,0.263324
1794.0,0.263617
1796.0,0.263891
1798.0,0.260116
1800.0,0.261137
1802.0,0.264203
1804.0,0.260471
1806.0,0.263657
1808.0,0.271591
1810.0,0.273159
1812.0,0.278751
1814.0,0.296307
1816.0,0.304978
1818.0,0.29299
1820.0,0.26777
1822.0,0.284296
1824.0,0.316709
1826.0,0.281468
1828.0,0.258574
1830.0,0.348655
1832.0,0.359097
1834.0,0.0
1836.0,0.0
1838.0,0.0
1840.0,0.562586
1842.0,0.656509
1844.0,0.564378
1846.0,0.56096
1848.0,0.558792
1850.0,0.561081
1852.0,0.648924
1854.0,0.214505
1856.0,0.0
1858.0,0.0
1860.0,0.138947
1862.0,1.0
1864.0,0.285965
1866.0,0.156728
1868.0,0.705231
1870.0,0.569074
1872.0,0.0
1874.0,0.137815
1876.0,0.0
1878.0,1.0
1880.0,0.930434
1882.0,0.507969
1884.0,0.240935
1886.0,0.244926
1888.0,0.273792
1890.0,0.292362
1892.0,0.246993
1894.0,0.235525
1896.0,0.253233
1898.0,0.236466
1900.0,0.146347
1902.0,0.0851162
1904.0,0.0393987
1906.0,0.0968622
1908.0,0.326332
1910.0,0.963948
1912.0,1.0
1914.0,0.343079
1916.0,0.474629
1918.0,0.274641
1920.0,0.196755
1922.0,0.19456
1924.0,0.199404
1926.0,0.218408
1928.0,0.192948
1930.0,0.209411
1932.0,0.251892
1934.0,0.235542
1936.0,0.236432
1938.0,0.255482
1940.0,0.259783
1942.0,0.271733
1944.0,0.274228
1946.0,0.261183
1948.0,0.246556
1950.0,0.234348
1952.0,0.244014
1954.0,0.242143
1956.0,0.247129
1958.0,0.251124
1960.0,0.255368
1962.0,0.256046
1964.0,0.252953
1966.0,0.253749
1968.0,0.254866
1970.0,0.255618
1972.0,0.252014
1974.0,0.253767
1976.0,0.256416
1978.0,0.255708
1980.0,0.255273
1982.0,0.258044
1984.0,0.258522
1986.0,0.257583
1988.0,0.2562
1990.0,0.254099
1992.0,0.253958
1994.0,0.255261
1996.0,0.256847
1998.0,0.260347
2000.0,0.259528
2002.0,0.250173
2004.0,0.244967
2006.0,0.259125
2008.0,0.266547
2010.0,0.261992
2012.0,0.26526
2014.0,0.265628
2016.0,0.260656
2018.0,0.254744
2020.0,0.253744
2022.0,0.252292
2024.0,0.257488
2026.0,0.260917
2028.0,0.262253
2030.0,0.261067
2032.0,0.259914
2034.0,0.259046
2036.0,0.259459
2038.0,0.259004
2040.0,0.258806
2042.0,0.261293
2044.0,0.26397
2046.0,0.266034
2048.0,0.266065
2050.0,0.265975
2052.0,0.265935
2054.0,0.267604
2056.0,0.266133
2058.0,0.263756
2060.0,0.265332
2062.0,0.266463
2064.0,0.266938
2066.0,0.267032
2068.0,0.269704
2070.0,0.270236
2072.0,0.26818
2074.0,0.2666
2076.0,0.265194
2078.0,0.265155
2080.0,0.266398
2082.0,0.264196
2084.0,0.26211
2086.0,0.263983
2088.0,0.26733
2090.0,0.267682
2092.0,0.266912
2094.0,0.266342
2096.0,0.265304
2098.0,0.264354
2100.0,0.264412
2102.0,0.265396
2104.0,0.267111
2106.0,0.267288
2108.0,0.266169
2110.0,0.267305
2112.0,0.268198
2114.0,0.26825
2116.0,0.268944
2118.0,0.26915
2120.0,0.270471
2122.0,0.271575
2124.0,0.271112
2126.0,0.268491
2128.0,0.266713
2130.0,0.266295
2132.0,0.26666
2134.0,0.266819
2136.0,0.267628
2138.0,0.268064
2140.0,0.265942
2142.0,0.264881
2144.0,0.266877
2146.0,0.268497
2148.0,0.268223
2150.0,0.267684
2152.0,0.265625
2154.0,0.265524
2156.0,0.265071
2158.0,0.263042
2160.0,0.26569
2162.0,0.267694
2164.0,0.266517
2166.0,0.264657
2168.0,0.264766
2170.0,0.26467
2172.0,0.261797
2174.0,0.258365
2176.0,0.259664
2178.0,0.261591
2180.0,0.26263
2182.0,0.261823
2184.0,0.258721
2186.0,0.257991
2188.0,0.25751
2190.0,0.255952
2192.0,0.255674
2194.0,0.256431
2196.0,0.255383
2198.0,0.254804
2200.0,0.255681
2202.0,0.255821
2204.0,0.254674
2206.0,0.253474
2208.0,0.254052
2210.0,0.256076
2212.0,0.255407
2214.0,0.252703
2216.0,0.252105
2218.0,0.253677
2220.0,0.253956
2222.0,0.254869
2224.0,0.255054
2226.0,0.253573
2228.0,0.252884
2230.0,0.254558
2232.0,0.253365
2234.0,0.25139
2236.0,0.251505
2238.0,0.252717
2240.0,0.255055
2242.0,0.255843
2244.0,0.253663
2246.0,0.255525
2248.0,0.257359
2250.0,0.256005
2252.0,0.251336
2254.0,0.247672
2256.0,0.248892
2258.0,0.252445
2260.0,0.254157
2262.0,0.256351
2264.0,0.255348
2266.0,0.252196
2268.0,0.254282
2270.0,0.255978
2272.0,0.255255
2274.0,0.255736
2276.0,0.254964
2278.0,0.251346
2280.0,0.251496
2282.0,0.256305
2284.0,0.254682
2286.0,0.24949
2288.0,0.25046
2290.0,0.252709
2292.0,0.253224
2294.0,0.252215
2296.0,0.249425
2298.0,0.247355
2300.0,0.245753
2302.0,0.245927
2304.0,0.247595
2306.0,0.25233
2308.0,0.253872
2310.0,0.251413
2312.0,0.249816
2314.0,0.249063
2316.0,0.247489
2318.0,0.248732
2320.0,0.250299
2322.0,0.251397
2324.0,0.249866
2326.0,0.246749
2328.0,0.247894
2330.0,0.246957
2332.0,0.240402
2334.0,0.241239
2336.0,0.246594
2338.0,0.248064
2340.0,0.249677
2342.0,0.252731
2344.0,0.255881
2346.0,0.257485
2348.0,0.254161
2350.0,0.243829
2352.0,0.243803
2354.0,0.247919
2356.0,0.251167
2358.0,0.254407
2360.0,0.253951
2362.0,0.258031
2364.0,0.258219
2366.0,0.247821
2368.0,0.244792
2370.0,0.244231
2372.0,0.241205
2374.0,0.246669
2376.0,0.251775
2378.0,0.251986
2380.0,0.256242
2382.0,0.253321
2384.0,0.254259
2386.0,0.257322
2388.0,0.250118
2390.0,0.242561
2392.0,0.244143
2394.0,0.252371
2396.0,0.249124
2398.0,0.249639
2400.0,0.247388
2402.0,0.247345
2404.0,0.244325
2406.0,0.247483
2408.0,0.273019
2410.0,0.267944
2412.0,0.235651
2414.0,0.226809
2416.0,0.244736
2418.0,0.260003
2420.0,0.264238
2422.0,0.264916
2424.0,0.268362
2426.0,0.252812
2428.0,0.240938
2430.0,0.249818
2432.0,0.256645
2434.0,0.255179
2436.0,0.250002
2438.0,0.241699
2440.0,0.240387
2442.0,0.253103
2444.0,0.273989
2446.0,0.324165
2448.0,0.298305
2450.0,0.273039
2452.0,0.294647
2454.0,0.254924
2456.0,0.220316
2458.0,0.229965
2460.0,0.246937
2462.0,0.248626
2464.0,0.250101
2466.0,0.275879
2468.0,0.295591
2470.0,0.256923
2472.0,0.230542
2474.0,0.256959
2476.0,0.25221
2478.0,0.271573
2480.0,0.30884
2482.0,0.319104
2484.0,0.407661
2486.0,0.353807
2488.0,0.18318
2490.0,0.170055
2492.0,0.465627
2494.0,0.335272
2496.0,0.478956
2498.0,0.895351
2500.0,0.377097