File: data/spectra_ascii/AsphaltNassPfuetzen___corthum00446.txt
Wavelength (nm),Reflectance
350.0,0.0257122
352.0,0.0254171
354.0,0.025959
356.0,0.0254969
358.0,0.0251485
360.0,0.0249603
362.0,0.0249136
364.0,0.0251463
366.0,0.0252381
368.0,0.0247926
370.0,0.0243683
372.0,0.0242528
374.0,0.0249025
376.0,0.024528
378.0,0.0245356
380.0,0.024634
382.0,0.0246944
384.0,0.0245172
386.0,0.0245756
388.0,0.0246407
390.0,0.0245568
392.0,0.0247963
394.0,0.0247015
396.0,0.0246225
398.0,0.0248906
400.0,0.0245682
402.0,0.0246037
404.0,0.0245494
406.0,0.0247524
408.0,0.0247431
410.0,0.0248363
412.0,0.0247782
414.0,0.0248004
416.0,0.0250019
418.0,0.0249203
420.0,0.0248935
422.0,0.0249493
424.0,0.0250821
426.0,0.0251754
428.0,0.0251781
430.0,0.0253653
432.0,0.0254025
434.0,0.025468
436.0,0.0255091
438.0,0.0256198
440.0,0.025729
442.0,0.0258238
444.0,0.0258698
446.0,0.0259416
448.0,0.0260248
450.0,0.0260256
452.0,0.0260822
454.0,0.026125
456.0,0.0262895
458.0,0.026291
460.0,0.0263501
462.0,0.0264669
464.0,0.026514
466.0,0.0266165
468.0,0.0266574
470.0,0.0266979
472.0,0.0268081
474.0,0.0269082
476.0,0.0269635
478.0,0.0270558
480.0,0.0271681
482.0,0.0272072
484.0,0.027305
486.0,0.0274854
488.0,0.0275694
490.0,0.0276314
492.0,0.0277929
494.0,0.0277989
496.0,0.0279785
498.0,0.0280716
500.0,0.0281699
502.0,0.0283238
504.0,0.0284878
506.0,0.0286199
508.0,0.0287358
510.0,0.0288284
512.0,0.0289397
514.0,0.0291577
516.0,0.0292521
518.0,0.0293949
520.0,0.0294907
522.0,0.0296844
524.0,0.0298266
526.0,0.0299927
528.0,0.0301808
530.0,0.030352
532.0,0.0305878
534.0,0.0307354
536.0,0.0309352
538.0,0.031104
540.0,0.0314008
542.0,0.0316143
544.0,0.0318977
546.0,0.0320636
548.0,0.0323055
550.0,0.0325761
552.0,0.0328329
554.0,0.0331639
556.0,0.0334605
558.0,0.0337482
560.0,0.0340485
562.0,0.0342545
564.0,0.0345462
566.0,0.0348841
568.0,0.0351541
570.0,0.0354184
572.0,0.0357055
574.0,0.0359805
576.0,0.0362605
578.0,0.0365199
580.0,0.036758
582.0,0.0369854
584.0,0.0372328
586.0,0.0374996
588.0,0.0378083
590.0,0.0380417
592.0,0.0382201
594.0,0.0384423
596.0,0.0386347
598.0,0.0388299
600.0,0.0389876
602.0,0.0392052
604.0,0.0394375
606.0,0.0395972
608.0,0.0398247
610.0,0.0399701
612.0,0.0401593
614.0,0.0403717
616.0,0.0405373
618.0,0.040749
620.0,0.0409469
622.0,0.0411084
624.0,0.041338
626.0,0.0414997
628.0,0.0418266
630.0,0.042003
632.0,0.0421857
634.0,0.0422702
636.0,0.0424562
638.0,0.0426553
640.0,0.0428592
642.0,0.0430362
644.0,0.0432415
646.0,0.0433913
648.0,0.0437184
650.0,0.0438862
652.0,0.0440544
654.0,0.0442153
656.0,0.0443815
658.0,0.0445687
660.0,0.0447864
662.0,0.0450009
664.0,0.0451057
666.0,0.045302
668.0,0.0454789
670.0,0.0457359
672.0,0.0458982
674.0,0.0461281
676.0,0.0463233
678.0,0.0465066
680.0,0.0467003
682.0,0.046886
684.0,0.0471166
686.0,0.0474812
688.0,0.0478823
690.0,0.0480955
692.0,0.0481876
694.0,0.0484022
696.0,0.048577
698.0,0.0486789
700.0,0.0489128
702.0,0.0490929
704.0,0.0493463
706.0,0.0495545
708.0,0.0497788
710.0,0.0499377
712.0,0.0501758
714.0,0.0504315
716.0,0.0508359
718.0,0.0513765
720.0,0.05158
722.0,0.0516071
724.0,0.0519416
726.0,0.052186
728.0,0.0523705
730.0,0.0525543
732.0,0.0526697
734.0,0.0528566
736.0,0.0530262
738.0,0.0532245
740.0,0.0534986
742.0,0.0536927
744.0,0.0539275
746.0,0.054128
748.0,0.0543822
750.0,0.0546502
752.0,0.0548792
754.0,0.0551239
756.0,0.0553471
758.0,0.0556493
760.0,0.0565387
762.0,0.0575078
764.0,0.0574894
766.0,0.0571229
768.0,0.0569455
770.0,0.0570127
772.0,0.0572459
774.0,0.0574315
776.0,0.0577285
778.0,0.0578898
780.0,0.0581731
782.0,0.0583866
784.0,0.0585873
786.0,0.0587844
788.0,0.0590774
790.0,0.0592759
792.0,0.0594586
794.0,0.0596599
796.0,0.0599485
798.0,0.0600728
800.0,0.0602987
802.0,0.0605698
804.0,0.0607933
806.0,0.0608768
808.0,0.0610759
810.0,0.0613064
812.0,0.0617048
814.0,0.0621321
816.0,0.0623043
818.0,0.0623628
820.0,0.062496
822.0,0.0626911
824.0,0.062808
826.0,0.062893
828.0,0.0630971
830.0,0.0631264
832.0,0.0633213
834.0,0.0634137
836.0,0.0636124
838.0,0.063666
840.0,0.0637213
842.0,0.063938
844.0,0.0640398
846.0,0.0642787
848.0,0.0644138
850.0,0.064571
852.0,0.0645925
854.0,0.0648323
856.0,0.0649923
858.0,0.0651276
860.0,0.0652568
862.0,0.0653274
864.0,0.0655333
866.0,0.0656648
868.0,0.0658134
870.0,0.0658179
872.0,0.0659986
874.0,0.0662264
876.0,0.0663415
878.0,0.0664069
880.0,0.0664375
882.0,0.0667338
884.0,0.0666848
886.0,0.0669856
888.0,0.0670527
890.0,0.0671861
892.0,0.0673547
894.0,0.0676108
896.0,0.0677841
898.0,0.0678268
900.0,0.0680093
902.0,0.0679876
904.0,0.0679917
906.0,0.0680908
908.0,0.0683234
910.0,0.0684179
912.0,0.0686876
914.0,0.0686157
916.0,0.0686293
918.0,0.06879
920.0,0.0687834
922.0,0.0687015
924.0,0.0688152
926.0,0.0688967
928.0,0.0690591
930.0,0.0695187
932.0,0.0693254
934.0,0.0691779
936.0,0.0687188
938.0,0.0686235
940.0,0.0692834
942.0,0.069035
944.0,0.0686186
946.0,0.0689721
948.0,0.0683313
950.0,0.0679605
952.0,0.0680691
954.0,0.066869
956.0,0.0668081
958.0,0.067111
960.0,0.0672796
962.0,0.0666791
964.0,0.0667499
966.0,0.0665693
968.0,0.0666614
970.0,0.0672022
972.0,0.0670541
974.0,0.0674756
976.0,0.0666234
978.0,0.0674467
980.0,0.0668125
982.0,0.0673903
984.0,0.0670635
986.0,0.0671364
988.0,0.0670921
990.0,0.068067
992.0,0.0678617
994.0,0.067302
996.0,0.0674719
998.0,0.0679312
1000.0,0.0678082
1002.0,0.0703828
1004.0,0.0707394
1006.0,0.0714585
1008.0,0.0713392
1010.0,0.0709999
1012.0,0.0711992
1014.0,0.0719738
1016.0,0.0724767
1018.0,0.0723192
1020.0,0.072223
1022.0,0.0725134
1024.0,0.0727119
1026.0,0.073306
1028.0,0.0734042
1030.0,0.073367
1032.0,0.0736257
1034.0,0.0738119
1036.0,0.073704
1038.0,0.0738181
1040.0,0.0740109
1042.0,0.0744054
1044.0,0.0744928
1046.0,0.0746863
1048.0,0.0748366
1050.0,0.074876
1052.0,0.0751197
1054.0,0.0757611
1056.0,0.0756519
1058.0,0.0756412
1060.0,0.0753767
1062.0,0.0752977
1064.0,0.0756986
1066.0,0.075837
1068.0,0.0760922
1070.0,0.0761706
1072.0,0.0760887
1074.0,0.0759982
1076.0,0.0761641
1078.0,0.0761881
1080.0,0.0762348
1082.0,0.0764292
1084.0,0.0766736
1086.0,0.0764695
1088.0,0.0760883
1090.0,0.0762368
1092.0,0.0766548
1094.0,0.0767503
1096.0,0.0766515
1098.0,0.0768428
1100.0,0.0767248
1102.0,0.0765158
1104.0,0.076465
1106.0,0.0764805
1108.0,0.0765599
1110.0,0.0765057
1112.0,0.0768047
1114.0,0.077035
1116.0,0.0772292
1118.0,0.0774889
1120.0,0.0777461
1122.0,0.0781353
1124.0,0.0785865
1126.0,0.0783561
1128.0,0.0770285
1130.0,0.0758757
1132.0,0.0750651
1134.0,0.0751466
1136.0,0.0748074
1138.0,0.073952
1140.0,0.0730621
1142.0,0.0724828
1144.0,0.0723142
1146.0,0.0717439
1148.0,0.0708513
1150.0,0.0694693
1152.0,0.0684599
1154.0,0.0683109
1156.0,0.0682936
1158.0,0.0676362
1160.0,0.0672443
1162.0,0.0668726
1164.0,0.0667863
1166.0,0.0667494
1168.0,0.0665712
1170.0,0.066377
1172.0,0.0663604
1174.0,0.0665391
1176.0,0.0665
1178.0,0.0662067
1180.0,0.0659445
1182.0,0.0658423
1184.0,0.0659254
1186.0,0.0661532
1188.0,0.0660395
1190.0,0.0656898
1192.0,0.0656297
1194.0,0.0657304
1196.0,0.065701
1198.0,0.0659372
1200.0,0.0660048
1202.0,0.0658646
1204.0,0.0657846
1206.0,0.0659319
1208.0,0.0660204
1210.0,0.066043
1212.0,0.0661202
1214.0,0.0661697
1216.0,0.0661408
1218.0,0.066212
1220.0,0.0663783
1222.0,0.0664633
1224.0,0.0666062
1226.0,0.0666801
1228.0,0.0666784
1230.0,0.0666688
1232.0,0.0667597
1234.0,0.0668461
1236.0,0.0669969
1238.0,0.067063
1240.0,0.0670346
1242.0,0.067131
1244.0,0.0670662
1246.0,0.0671361
1248.0,0.0674372
1250.0,0.06756
1252.0,0.0676647
1254.0,0.0676817
1256.0,0.0676419
1258.0,0.0678838
1260.0,0.0682802
1262.0,0.068554
1264.0,0.0687231
1266.0,0.0690116
1268.0,0.0691368
1270.0,0.0689586
1272.0,0.0686932
1274.0,0.0686917
1276.0,0.0685426
1278.0,0.068587
1280.0,0.0686206
1282.0,0.0683301
1284.0,0.0680843
1286.0,0.0677413
1288.0,0.0675552
1290.0,0.0675121
1292.0,0.0673738
1294.0,0.0672391
1296.0,0.067062
1298.0,0.0669343
1300.0,0.0666725
1302.0,0.066247
1304.0,0.0659868
1306.0,0.0658079
1308.0,0.0653798
1310.0,0.064886
1312.0,0.0644691
1314.0,0.0641827
1316.0,0.0636532
1318.0,0.0631606
1320.0,0.0626092
1322.0,0.0623791
1324.0,0.0618892
1326.0,0.0611813
1328.0,0.0608023
1330.0,0.0602913
1332.0,0.0596713
1334.0,0.0593364
1336.0,0.0586348
1338.0,0.0579971
1340.0,0.0577059
1342.0,0.057727
1344.0,0.0577157
1346.0,0.0573496
1348.0,0.0572454
1350.0,0.0575414
1352.0,0.0567017
1354.0,0.0574031
1356.0,0.0659359
1358.0,0.0687832
1360.0,0.0669607
1362.0,0.0788838
1364.0,0.123219
1366.0,0.181526
1368.0,0.255699
1370.0,0.0615459
1372.0,0.038672
1374.0,0.0456149
1376.0,0.0672725
1378.0,0.0691444
1380.0,0.0907909
1382.0,0.0792247
1384.0,0.0637236
1386.0,0.0798467
1388.0,0.0642552
1390.0,0.0604739
1392.0,0.0680329
1394.0,0.0713225
1396.0,0.0546675
1398.0,0.029611
1400.0,0.0331634
1402.0,0.0440498
1404.0,0.0447226
1406.0,0.0424016
1408.0,0.0293094
1410.0,0.02457
1412.0,0.0243838
1414.0,0.0228695
1416.0,0.0249868
1418.0,0.0266667
1420.0,0.0240763
1422.0,0.0215911
1424.0,0.0202031
1426.0,0.0190168
1428.0,0.0192452
1430.0,0.0195835
1432.0,0.0202726
1434.0,0.0201275
1436.0,0.0204271
1438.0,0.0204898
1440.0,0.0200439
1442.0,0.0183592
1444.0,0.0182978
1446.0,0.0177564
1448.0,0.0166994
1450.0,0.0155447
1452.0,0.014994
1454.0,0.0162755
1456.0,0.0167062
1458.0,0.0160705
1460.0,0.0157079
1462.0,0.0153762
1464.0,0.0147945
1466.0,0.0145784
1468.0,0.0150143
1470.0,0.0154192
1472.0,0.0149673
1474.0,0.0145147
1476.0,0.0154486
1478.0,0.0155089
1480.0,0.0149168
1482.0,0.0149327
1484.0,0.0150462
1486.0,0.0151533
1488.0,0.0158069
1490.0,0.0164792
1492.0,0.0163599
1494.0,0.0158502
1496.0,0.0157439
1498.0,0.0162325
1500.0,0.0166636
1502.0,0.0167686
1504.0,0.0168417
1506.0,0.0170951
1508.0,0.0174457
1510.0,0.0177895
1512.0,0.0182105
1514.0,0.0182874
1516.0,0.0186068
1518.0,0.0190664
1520.0,0.0193762
1522.0,0.019663
1524.0,0.0201368
1526.0,0.0205106
1528.0,0.0208656
1530.0,0.0212267
1532.0,0.0216251
1534.0,0.0220038
1536.0,0.0223159
1538.0,0.0226158
1540.0,0.0229933
1542.0,0.0234051
1544.0,0.0237506
1546.0,0.0241514
1548.0,0.0245925
1550.0,0.0249036
1552.0,0.0253033
1554.0,0.0256821
1556.0,0.0260168
1558.0,0.0262379
1560.0,0.0265478
1562.0,0.0272306
1564.0,0.0276581
1566.0,0.0279501
1568.0,0.0282848
1570.0,0.0287165
1572.0,0.0292701
1574.0,0.0296799
1576.0,0.0300649
1578.0,0.0303156
1580.0,0.030589
1582.0,0.0309901
1584.0,0.0313068
1586.0,0.0316188
1588.0,0.0319282
1590.0,0.0323282
1592.0,0.0324244
1594.0,0.0324447
1596.0,0.0328192
1598.0,0.0331838
1600.0,0.0337886
1602.0,0.0339355
1604.0,0.0340123
1606.0,0.0342984
1608.0,0.0345709
1610.0,0.0352452
1612.0,0.0349725
1614.0,0.0349836
1616.0,0.0354748
1618.0,0.0356899
1620.0,0.0360792
1622.0,0.0363568
1624.0,0.0365936
1626.0,0.0369837
1628.0,0.0367086
1630.0,0.0368528
1632.0,0.0373452
1634.0,0.0374862
1636.0,0.0372611
1638.0,0.0372101
1640.0,0.0377131
1642.0,0.0380564
1644.0,0.0379538
1646.0,0.0381421
1648.0,0.0384457
1650.0,0.0382241
1652.0,0.0380543
1654.0,0.0384979
1656.0,0.0388056
1658.0,0.0387614
1660.0,0.03899
1662.0,0.0392399
1664.0,0.039085
1666.0,0.0391018
1668.0,0.039351
1670.0,0.0394624
1672.0,0.0393638
1674.0,0.0393871
1676.0,0.0398472
1678.0,0.039776
1680.0,0.0397013
1682.0,0.0400955
1684.0,0.0401604
1686.0,0.0398485
1688.0,0.0399923
1690.0,0.0403313
1692.0,0.0401828
1694.0,0.0401895
1696.0,0.0402133
1698.0,0.0399791
1700.0,0.0398089
1702.0,0.0398169
1704.0,0.0396125
1706.0,0.0398061
1708.0,0.0399454
1710.0,0.0399211
1712.0,0.0401311
1714.0,0.0399183
1716.0,0.0393603
1718.0,0.038964
1720.0,0.0386604
1722.0,0.038918
1724.0,0.0391532
1726.0,0.0386521
1728.0,0.0384864
1730.0,0.0381815
1732.0,0.037835
1734.0,0.038005
1736.0,0.0378212
1738.0,0.0371089
1740.0,0.0375965
1742.0,0.037969
1744.0,0.0369362
1746.0,0.0358366
1748.0,0.0358103
1750.0,0.0358153
1752.0,0.0354819
1754.0,0.0355427
1756.0,0.0351153
1758.0,0.0345261
1760.0,0.0346573
1762.0,0.0340642
1764.0,0.0336321
1766.0,0.0335705
1768.0,0.0332714
1770.0,0.0330804
1772.0,0.0327607
1774.0,0.0331211
1776.0,0.0331151
1778.0,0.0331357
1780.0,0.0328405
1782.0,0.032694
1784.0,0.033798
1786.0,0.0337681
1788.0,0.0335428
1790.0,0.0330839
1792.0,0.0327788
1794.0,0.0325097
1796.0,0.0325056
1798.0,0.0342438
1800.0,0.0366419
1802.0,0.0406596
1804.0,0.0526036
1806.0,0.0477257
1808.0,0.0501429
1810.0,0.0535402
1812.0,0.0436006
1814.0,0.0593351
1816.0,0.0766827
1818.0,0.109425
1820.0,0.0767578
1822.0,0.0501026
1824.0,0.0478775
1826.0,0.0895624
1828.0,0.153923
1830.0,0.178808
1832.0,0.135474
1834.0,0.191794
1836.0,0.0
1838.0,0.0
1840.0,0.0
1842.0,0.0
1844.0,0.0
1846.0,0.0
1848.0,0.160127
1850.0,1.0
1852.0,0.130179
1854.0,0.0
1856.0,0.0
1858.0,0.0
1860.0,0.224306
1862.0,0.812535
1864.0,0.50422
1866.0,0.47138
1868.0,0.374026
1870.0,0.0
1872.0,0.131594
1874.0,0.0289919
1876.0,0.0
1878.0,0.0
1880.0,0.154899
1882.0,0.312048
1884.0,0.43973
1886.0,0.228046
1888.0,0.0312868
1890.0,0.0531437
1892.0,0.0964788
1894.0,0.0459357
1896.0,0.0112589
1898.0,0.0545579
1900.0,0.265271
1902.0,0.0
1904.0,1.0
1906.0,0.266899
1908.0,0.233858
1910.0,0.244998
1912.0,0.329445
1914.0,0.131066
1916.0,0.120559
1918.0,0.114588
1920.0,0.10307
1922.0,0.0674147
1924.0,0.103362
1926.0,0.104487
1928.0,0.0768916
1930.0,0.0463354
1932.0,0.0492069
1934.0,0.0489882
1936.0,0.0448724
1938.0,0.0313633
1940.0,0.022903
1942.0,0.0172417
1944.0,0.0122889
1946.0,0.00666388
1948.0,0.00855896
1950.0,0.0112539
1952.0,0.0123183
1954.0,0.01946
1956.0,0.014499
1958.0,0.00813037
1960.0,0.0131823
1962.0,0.0122929
1964.0,0.00841791
1966.0,0.00745184
1968.0,0.00803403
1970.0,0.00964478
1972.0,0.00933808
1974.0,0.00721881
1976.0,0.00598351
1978.0,0.00662586
1980.0,0.00675981
1982.0,0.00697687
1984.0,0.00680197
1986.0,0.00722506
1988.0,0.00741172
1990.0,0.00688033
1992.0,0.00842932
1994.0,0.00912066
1996.0,0.00967186
1998.0,0.0078585
2000.0,0.00800145
2002.0,0.0111965
2004.0,0.0176303
2006.0,0.0199943
2008.0,0.0159375
2010.0,0.0093932
2012.0,0.0155295
2014.0,0.0260427
2016.0,0.0235902
2018.0,0.0200219
2020.0,0.0157216
2022.0,0.0106794
2024.0,0.00812794
2026.0,0.00988955
2028.0,0.0102938
2030.0,0.00998398
2032.0,0.0100398
2034.0,0.0101041
2036.0,0.00892186
2038.0,0.00802838
2040.0,0.00933287
2042.0,0.0110818
2044.0,0.0104097
2046.0,0.0102492
2048.0,0.0110775
2050.0,0.0127345
2052.0,0.0125732
2054.0,0.0118451
2056.0,0.0109783
2058.0,0.0105301
2060.0,0.0113936
2062.0,0.0124409
2064.0,0.0108323
2066.0,0.010194
2068.0,0.0105061
2070.0,0.0107461
2072.0,0.0108031
2074.0,0.0110235
2076.0,0.0111591
2078.0,0.0121924
2080.0,0.012235
2082.0,0.0132433
2084.0,0.0141935
2086.0,0.0127933
2088.0,0.0125772
2090.0,0.0138372
2092.0,0.0153069
2094.0,0.0152629
2096.0,0.0156758
2098.0,0.0143304
2100.0,0.014143
2102.0,0.0151989
2104.0,0.0162728
2106.0,0.0169133
2108.0,0.0161779
2110.0,0.0153014
2112.0,0.0148564
2114.0,0.0149355
2116.0,0.0147107
2118.0,0.0154108
2120.0,0.0169216
2122.0,0.0170119
2124.0,0.0157782
2126.0,0.0161426
2128.0,0.0169161
2130.0,0.0169686
2132.0,0.0184647
2134.0,0.0178211
2136.0,0.0168551
2138.0,0.0181429
2140.0,0.0184115
2142.0,0.0170532
2144.0,0.0165118
2146.0,0.0168506
2148.0,0.0166065
2150.0,0.0175687
2152.0,0.0178494
2154.0,0.0174788
2156.0,0.0176792
2158.0,0.017997
2160.0,0.0177287
2162.0,0.0185754
2164.0,0.0198952
2166.0,0.0215073
2168.0,0.0206629
2170.0,0.0180777
2172.0,0.0174014
2174.0,0.0185444
2176.0,0.0195266
2178.0,0.019122
2180.0,0.0188785
2182.0,0.0192916
2184.0,0.0189907
2186.0,0.0182259
2188.0,0.0171483
2190.0,0.0176328
2192.0,0.0178989
2194.0,0.0186713
2196.0,0.0204776
2198.0,0.0224621
2200.0,0.0220839
2202.0,0.0198533
2204.0,0.0187471
2206.0,0.018736
2208.0,0.019141
2210.0,0.0196925
2212.0,0.0200333
2214.0,0.0188114
2216.0,0.0182671
2218.0,0.0188641
2220.0,0.0184188
2222.0,0.0179583
2224.0,0.0190903
2226.0,0.0198311
2228.0,0.0199711
2230.0,0.0196746
2232.0,0.0182892
2234.0,0.0183846
2236.0,0.0203725
2238.0,0.0216687
2240.0,0.0222799
2242.0,0.0205307
2244.0,0.0197946
2246.0,0.0184298
2248.0,0.0182534
2250.0,0.0180942
2252.0,0.0193031
2254.0,0.0205617
2256.0,0.0187212
2258.0,0.0188678
2260.0,0.0205933
2262.0,0.0195009
2264.0,0.0166269
2266.0,0.0156993
2268.0,0.016769
2270.0,0.0177672
2272.0,0.0178287
2274.0,0.0169718
2276.0,0.0168465
2278.0,0.0152284
2280.0,0.0146993
2282.0,0.0169744
2284.0,0.017225
2286.0,0.0166506
2288.0,0.0169826
2290.0,0.0160974
2292.0,0.0165293
2294.0,0.0169504
2296.0,0.0156417
2298.0,0.0143038
2300.0,0.0132061
2302.0,0.0121962
2304.0,0.0140061
2306.0,0.0171262
2308.0,0.0172194
2310.0,0.0146872
2312.0,0.0123106
2314.0,0.0128521
2316.0,0.0151395
2318.0,0.0143459
2320.0,0.0142123
2322.0,0.0173658
2324.0,0.0197321
2326.0,0.015943
2328.0,0.0143575
2330.0,0.012668
2332.0,0.0122799
2334.0,0.0149731
2336.0,0.016759
2338.0,0.0133408
2340.0,0.0109355
2342.0,0.0148912
2344.0,0.0170833
2346.0,0.0167694
2348.0,0.0107978
2350.0,0.00599768
2352.0,0.00796359
2354.0,0.00832553
2356.0,0.00973597
2358.0,0.0116254
2360.0,0.0123323
2362.0,0.0131255
2364.0,0.0156275
2366.0,0.0157969
2368.0,0.0153693
2370.0,0.0192719
2372.0,0.0246498
2374.0,0.0252989
2376.0,0.0207229
2378.0,0.0116747
2380.0,0.0103515
2382.0,0.020929
2384.0,0.0132905
2386.0,0.00724365
2388.0,0.0131318
2390.0,0.0201362
2392.0,0.0209619
2394.0,0.0166367
2396.0,0.0157487
2398.0,0.0178029
2400.0,0.0208112
2402.0,0.0228267
2404.0,0.0170242
2406.0,0.0117663
2408.0,0.0131931
2410.0,0.00905603
2412.0,0.00458216
2414.0,0.0134873
2416.0,0.014591
2418.0,0.00648967
2420.0,0.00628092
2422.0,0.0159927
2424.0,0.0262783
2426.0,0.0252574
2428.0,0.0160717
2430.0,0.00419607
2432.0,0.0
2434.0,0.00332441
2436.0,0.00375852
2438.0,0.0
2440.0,0.0107176
2442.0,0.0077355
2444.0,0.0
2446.0,0.0
2448.0,0.0
2450.0,0.0
2452.0,0.0
2454.0,0.0
2456.0,0.00600978
2458.0,0.0168769
2460.0,0.0268422
2462.0,0.0185993
2464.0,0.000550622
2466.0,0.0
2468.0,0.0
2470.0,0.0
2472.0,0.0
2474.0,0.0
2476.0,0.00266892
2478.0,0.0448598
2480.0,0.0718893
2482.0,0.0881661
2484.0,0.0677747
2486.0,0.0
2488.0,0.0
2490.0,0.088119
2492.0,0.307278
2494.0,0.161229
2496.0,0.0842075
2498.0,0.143368
2500.0,0.167917