File: data/spectra_ascii/AsphaltTrockenVerschmutzung1___corthum00394.txt
Wavelength (nm),Reflectance
350.0,0.0784702
352.0,0.0789831
354.0,0.0793586
356.0,0.0803198
358.0,0.0799907
360.0,0.0811935
362.0,0.0813155
364.0,0.0816546
366.0,0.0826872
368.0,0.0828258
370.0,0.0835453
372.0,0.0842699
374.0,0.085356
376.0,0.0866293
378.0,0.0867757
380.0,0.0877969
382.0,0.0884411
384.0,0.0891715
386.0,0.0896634
388.0,0.091086
390.0,0.0918131
392.0,0.0921232
394.0,0.0930386
396.0,0.0939002
398.0,0.0945525
400.0,0.0952449
402.0,0.0958134
404.0,0.0964152
406.0,0.097115
408.0,0.0976536
410.0,0.0984894
412.0,0.0991694
414.0,0.0998376
416.0,0.100578
418.0,0.101169
420.0,0.101868
422.0,0.102634
424.0,0.1035
426.0,0.104096
428.0,0.10491
430.0,0.105822
432.0,0.106662
434.0,0.107401
436.0,0.108255
438.0,0.108997
440.0,0.109811
442.0,0.110561
444.0,0.111236
446.0,0.111955
448.0,0.112671
450.0,0.113453
452.0,0.113919
454.0,0.114644
456.0,0.1152
458.0,0.115789
460.0,0.116365
462.0,0.117005
464.0,0.117549
466.0,0.118061
468.0,0.118654
470.0,0.119186
472.0,0.119782
474.0,0.120324
476.0,0.120854
478.0,0.121465
480.0,0.122082
482.0,0.122798
484.0,0.123467
486.0,0.124254
488.0,0.124995
490.0,0.125671
492.0,0.126478
494.0,0.127263
496.0,0.128012
498.0,0.12882
500.0,0.129766
502.0,0.130519
504.0,0.131267
506.0,0.132112
508.0,0.132939
510.0,0.133744
512.0,0.134598
514.0,0.135482
516.0,0.136333
518.0,0.137289
520.0,0.138162
522.0,0.139087
524.0,0.139948
526.0,0.140907
528.0,0.141937
530.0,0.142915
532.0,0.143944
534.0,0.14509
536.0,0.146198
538.0,0.147364
540.0,0.14858
542.0,0.149854
544.0,0.151153
546.0,0.152437
548.0,0.153767
550.0,0.155166
552.0,0.156642
554.0,0.158169
556.0,0.159678
558.0,0.161226
560.0,0.162778
562.0,0.164242
564.0,0.165761
566.0,0.167172
568.0,0.168714
570.0,0.170203
572.0,0.171576
574.0,0.173019
576.0,0.174356
578.0,0.175764
580.0,0.177103
582.0,0.178388
584.0,0.179612
586.0,0.180767
588.0,0.181987
590.0,0.183101
592.0,0.184073
594.0,0.185083
596.0,0.186063
598.0,0.18695
600.0,0.187884
602.0,0.1888
604.0,0.189612
606.0,0.190502
608.0,0.191365
610.0,0.192151
612.0,0.192984
614.0,0.193772
616.0,0.194531
618.0,0.195331
620.0,0.195971
622.0,0.19675
624.0,0.197475
626.0,0.198199
628.0,0.198923
630.0,0.199694
632.0,0.200406
634.0,0.201049
636.0,0.201843
638.0,0.202516
640.0,0.203231
642.0,0.203887
644.0,0.204615
646.0,0.205259
648.0,0.205956
650.0,0.206718
652.0,0.207352
654.0,0.207947
656.0,0.208669
658.0,0.209432
660.0,0.209974
662.0,0.210701
664.0,0.211358
666.0,0.211976
668.0,0.212592
670.0,0.213187
672.0,0.213851
674.0,0.214402
676.0,0.215098
678.0,0.215777
680.0,0.216417
682.0,0.216984
684.0,0.21754
686.0,0.218209
688.0,0.218817
690.0,0.219417
692.0,0.22001
694.0,0.220655
696.0,0.221226
698.0,0.221843
700.0,0.222425
702.0,0.222989
704.0,0.223584
706.0,0.224217
708.0,0.224731
710.0,0.225362
712.0,0.225901
714.0,0.226541
716.0,0.227235
718.0,0.227827
720.0,0.228514
722.0,0.229073
724.0,0.229715
726.0,0.23032
728.0,0.230971
730.0,0.231596
732.0,0.232226
734.0,0.232838
736.0,0.2335
738.0,0.234163
740.0,0.234828
742.0,0.235442
744.0,0.23608
746.0,0.236774
748.0,0.237426
750.0,0.238077
752.0,0.238785
754.0,0.239432
756.0,0.240043
758.0,0.240812
760.0,0.241177
762.0,0.24181
764.0,0.242575
766.0,0.243469
768.0,0.243928
770.0,0.244537
772.0,0.245154
774.0,0.24574
776.0,0.246288
778.0,0.246948
780.0,0.247501
782.0,0.24808
784.0,0.248714
786.0,0.249323
788.0,0.249841
790.0,0.250453
792.0,0.251063
794.0,0.251595
796.0,0.252203
798.0,0.252786
800.0,0.253229
802.0,0.253782
804.0,0.254381
806.0,0.254918
808.0,0.255447
810.0,0.255912
812.0,0.256614
814.0,0.257097
816.0,0.257493
818.0,0.258208
820.0,0.258614
822.0,0.259118
824.0,0.259544
826.0,0.260016
828.0,0.260581
830.0,0.261109
832.0,0.261449
834.0,0.261984
836.0,0.262475
838.0,0.262892
840.0,0.263329
842.0,0.263687
844.0,0.264221
846.0,0.264654
848.0,0.265229
850.0,0.265601
852.0,0.265907
854.0,0.266589
856.0,0.267046
858.0,0.267274
860.0,0.267863
862.0,0.268323
864.0,0.268617
866.0,0.269112
868.0,0.269423
870.0,0.269877
872.0,0.270217
874.0,0.270854
876.0,0.271347
878.0,0.271623
880.0,0.271988
882.0,0.272539
884.0,0.272859
886.0,0.273361
888.0,0.27369
890.0,0.274115
892.0,0.274655
894.0,0.27488
896.0,0.275332
898.0,0.27581
900.0,0.276401
902.0,0.276649
904.0,0.277252
906.0,0.277519
908.0,0.27797
910.0,0.2783
912.0,0.278544
914.0,0.278924
916.0,0.279522
918.0,0.280063
920.0,0.280367
922.0,0.281072
924.0,0.281182
926.0,0.281326
928.0,0.281685
930.0,0.281404
932.0,0.280947
934.0,0.280491
936.0,0.281043
938.0,0.282317
940.0,0.282238
942.0,0.283539
944.0,0.28268
946.0,0.283299
948.0,0.284534
950.0,0.283705
952.0,0.284579
954.0,0.285215
956.0,0.285686
958.0,0.286384
960.0,0.287097
962.0,0.287517
964.0,0.288328
966.0,0.288801
968.0,0.288761
970.0,0.289354
972.0,0.29018
974.0,0.28987
976.0,0.29007
978.0,0.29118
980.0,0.291397
982.0,0.292099
984.0,0.291255
986.0,0.291734
988.0,0.292098
990.0,0.29296
992.0,0.293309
994.0,0.292681
996.0,0.292505
998.0,0.293773
1000.0,0.294545
1002.0,0.298484
1004.0,0.299245
1006.0,0.30008
1008.0,0.300294
1010.0,0.300199
1012.0,0.300926
1014.0,0.301142
1016.0,0.300803
1018.0,0.300671
1020.0,0.300941
1022.0,0.301329
1024.0,0.302053
1026.0,0.302497
1028.0,0.302825
1030.0,0.302912
1032.0,0.302447
1034.0,0.302618
1036.0,0.302378
1038.0,0.302424
1040.0,0.302746
1042.0,0.302966
1044.0,0.3036
1046.0,0.303568
1048.0,0.30369
1050.0,0.304036
1052.0,0.304149
1054.0,0.303997
1056.0,0.303839
1058.0,0.3039
1060.0,0.304649
1062.0,0.304867
1064.0,0.305289
1066.0,0.305715
1068.0,0.306255
1070.0,0.306173
1072.0,0.305907
1074.0,0.306127
1076.0,0.306379
1078.0,0.306813
1080.0,0.306915
1082.0,0.307507
1084.0,0.307319
1086.0,0.307382
1088.0,0.30829
1090.0,0.308576
1092.0,0.308941
1094.0,0.308956
1096.0,0.308984
1098.0,0.308838
1100.0,0.308762
1102.0,0.308818
1104.0,0.30885
1106.0,0.3088
1108.0,0.308841
1110.0,0.309353
1112.0,0.309535
1114.0,0.310138
1116.0,0.310065
1118.0,0.309376
1120.0,0.308872
1122.0,0.310123
1124.0,0.310934
1126.0,0.310138
1128.0,0.308993
1130.0,0.310004
1132.0,0.310992
1134.0,0.31086
1136.0,0.311092
1138.0,0.311725
1140.0,0.312153
1142.0,0.312919
1144.0,0.313496
1146.0,0.312953
1148.0,0.312358
1150.0,0.31293
1152.0,0.314123
1154.0,0.314962
1156.0,0.315227
1158.0,0.31516
1160.0,0.315582
1162.0,0.316006
1164.0,0.31582
1166.0,0.315632
1168.0,0.315686
1170.0,0.316033
1172.0,0.316425
1174.0,0.316653
1176.0,0.316869
1178.0,0.31713
1180.0,0.317346
1182.0,0.317594
1184.0,0.31805
1186.0,0.318213
1188.0,0.318196
1190.0,0.318143
1192.0,0.318362
1194.0,0.318663
1196.0,0.318917
1198.0,0.319103
1200.0,0.319338
1202.0,0.319337
1204.0,0.31929
1206.0,0.31945
1208.0,0.319864
1210.0,0.319852
1212.0,0.319822
1214.0,0.320333
1216.0,0.320419
1218.0,0.320248
1220.0,0.32021
1222.0,0.320194
1224.0,0.320368
1226.0,0.320545
1228.0,0.32066
1230.0,0.320705
1232.0,0.320646
1234.0,0.320617
1236.0,0.320615
1238.0,0.320617
1240.0,0.320636
1242.0,0.320576
1244.0,0.320353
1246.0,0.320455
1248.0,0.320838
1250.0,0.321154
1252.0,0.321407
1254.0,0.321045
1256.0,0.320842
1258.0,0.320871
1260.0,0.320756
1262.0,0.320814
1264.0,0.321183
1266.0,0.320996
1268.0,0.321197
1270.0,0.321372
1272.0,0.321411
1274.0,0.321583
1276.0,0.322144
1278.0,0.322358
1280.0,0.322064
1282.0,0.322253
1284.0,0.322498
1286.0,0.322471
1288.0,0.322688
1290.0,0.322726
1292.0,0.32266
1294.0,0.322687
1296.0,0.323067
1298.0,0.323291
1300.0,0.323434
1302.0,0.323586
1304.0,0.32361
1306.0,0.323544
1308.0,0.323619
1310.0,0.323837
1312.0,0.324116
1314.0,0.324623
1316.0,0.324841
1318.0,0.324732
1320.0,0.324162
1322.0,0.324061
1324.0,0.324476
1326.0,0.324931
1328.0,0.325352
1330.0,0.325588
1332.0,0.325256
1334.0,0.324848
1336.0,0.325166
1338.0,0.325277
1340.0,0.325789
1342.0,0.325936
1344.0,0.325957
1346.0,0.326106
1348.0,0.324897
1350.0,0.323453
1352.0,0.324077
1354.0,0.32559
1356.0,0.329044
1358.0,0.339666
1360.0,0.351907
1362.0,0.365253
1364.0,0.352477
1366.0,0.245868
1368.0,0.237072
1370.0,0.324784
1372.0,0.414807
1374.0,0.407577
1376.0,0.375899
1378.0,0.344003
1380.0,0.310905
1382.0,0.276254
1384.0,0.306471
1386.0,0.310515
1388.0,0.282209
1390.0,0.277555
1392.0,0.278284
1394.0,0.275887
1396.0,0.284624
1398.0,0.305177
1400.0,0.297472
1402.0,0.289812
1404.0,0.299835
1406.0,0.309102
1408.0,0.314361
1410.0,0.317671
1412.0,0.32113
1414.0,0.322389
1416.0,0.322265
1418.0,0.319755
1420.0,0.320912
1422.0,0.325637
1424.0,0.327275
1426.0,0.326222
1428.0,0.326788
1430.0,0.327548
1432.0,0.327705
1434.0,0.328411
1436.0,0.328612
1438.0,0.328024
1440.0,0.326386
1442.0,0.325994
1444.0,0.327088
1446.0,0.328195
1448.0,0.328493
1450.0,0.328772
1452.0,0.329712
1454.0,0.329253
1456.0,0.329525
1458.0,0.330617
1460.0,0.331006
1462.0,0.330194
1464.0,0.330267
1466.0,0.33118
1468.0,0.331829
1470.0,0.331625
1472.0,0.33139
1474.0,0.331703
1476.0,0.33161
1478.0,0.331904
1480.0,0.332017
1482.0,0.333161
1484.0,0.334275
1486.0,0.33405
1488.0,0.333587
1490.0,0.333886
1492.0,0.334887
1494.0,0.334862
1496.0,0.334427
1498.0,0.334846
1500.0,0.334758
1502.0,0.334536
1504.0,0.334694
1506.0,0.334994
1508.0,0.335288
1510.0,0.335174
1512.0,0.335274
1514.0,0.335289
1516.0,0.33504
1518.0,0.335248
1520.0,0.335557
1522.0,0.335468
1524.0,0.335528
1526.0,0.33599
1528.0,0.33604
1530.0,0.335858
1532.0,0.335703
1534.0,0.336268
1536.0,0.336484
1538.0,0.336318
1540.0,0.336454
1542.0,0.336633
1544.0,0.336549
1546.0,0.336156
1548.0,0.335832
1550.0,0.335948
1552.0,0.336219
1554.0,0.335968
1556.0,0.3357
1558.0,0.336121
1560.0,0.336492
1562.0,0.33681
1564.0,0.336635
1566.0,0.335981
1568.0,0.335886
1570.0,0.33603
1572.0,0.335516
1574.0,0.335508
1576.0,0.33569
1578.0,0.335709
1580.0,0.336258
1582.0,0.336358
1584.0,0.335748
1586.0,0.336063
1588.0,0.336571
1590.0,0.336347
1592.0,0.336187
1594.0,0.335965
1596.0,0.336016
1598.0,0.336399
1600.0,0.336516
1602.0,0.33632
1604.0,0.335806
1606.0,0.33576
1608.0,0.335756
1610.0,0.335781
1612.0,0.336032
1614.0,0.335913
1616.0,0.335451
1618.0,0.335311
1620.0,0.335582
1622.0,0.33542
1624.0,0.334687
1626.0,0.334734
1628.0,0.334756
1630.0,0.334788
1632.0,0.334727
1634.0,0.334364
1636.0,0.334469
1638.0,0.334353
1640.0,0.334013
1642.0,0.333778
1644.0,0.333859
1646.0,0.333661
1648.0,0.333128
1650.0,0.33339
1652.0,0.333825
1654.0,0.333681
1656.0,0.333072
1658.0,0.332857
1660.0,0.333089
1662.0,0.333403
1664.0,0.333155
1666.0,0.332876
1668.0,0.332805
1670.0,0.332698
1672.0,0.333473
1674.0,0.333491
1676.0,0.333496
1678.0,0.334002
1680.0,0.33423
1682.0,0.333719
1684.0,0.334517
1686.0,0.335139
1688.0,0.334775
1690.0,0.334777
1692.0,0.334854
1694.0,0.335381
1696.0,0.335206
1698.0,0.334625
1700.0,0.334864
1702.0,0.335657
1704.0,0.335578
1706.0,0.335501
1708.0,0.335747
1710.0,0.33608
1712.0,0.336475
1714.0,0.33617
1716.0,0.335495
1718.0,0.335324
1720.0,0.335804
1722.0,0.3361
1724.0,0.335778
1726.0,0.33595
1728.0,0.336294
1730.0,0.335242
1732.0,0.334968
1734.0,0.335917
1736.0,0.3355
1738.0,0.335404
1740.0,0.335821
1742.0,0.33565
1744.0,0.335999
1746.0,0.335705
1748.0,0.33556
1750.0,0.335345
1752.0,0.335454
1754.0,0.335603
1756.0,0.336015
1758.0,0.336101
1760.0,0.335685
1762.0,0.336165
1764.0,0.336024
1766.0,0.336605
1768.0,0.336437
1770.0,0.335564
1772.0,0.335975
1774.0,0.336154
1776.0,0.336887
1778.0,0.337557
1780.0,0.336316
1782.0,0.335854
1784.0,0.334939
1786.0,0.335933
1788.0,0.337604
1790.0,0.337401
1792.0,0.338675
1794.0,0.337832
1796.0,0.335059
1798.0,0.334905
1800.0,0.332343
1802.0,0.349722
1804.0,0.352043
1806.0,0.355823
1808.0,0.343445
1810.0,0.335707
1812.0,0.341203
1814.0,0.340758
1816.0,0.355332
1818.0,0.398696
1820.0,0.427668
1822.0,0.380021
1824.0,0.369651
1826.0,0.426677
1828.0,0.467863
1830.0,0.463437
1832.0,0.415427
1834.0,0.398247
1836.0,0.795348
1838.0,0.595877
1840.0,0.63027
1842.0,1.0
1844.0,0.0
1846.0,0.0
1848.0,0.0
1850.0,0.0
1852.0,0.295502
1854.0,0.110754
1856.0,0.231839
1858.0,1.0
1860.0,1.0
1862.0,0.764535
1864.0,0.589311
1866.0,0.60136
1868.0,1.0
1870.0,1.0
1872.0,0.439972
1874.0,0.949838
1876.0,0.823911
1878.0,0.896978
1880.0,0.554553
1882.0,0.482582
1884.0,0.36685
1886.0,0.359347
1888.0,0.376587
1890.0,0.704558
1892.0,0.66796
1894.0,0.488657
1896.0,0.422544
1898.0,0.322744
1900.0,0.307215
1902.0,0.393889
1904.0,0.231002
1906.0,0.205864
1908.0,0.269208
1910.0,0.34628
1912.0,1.0
1914.0,1.0
1916.0,0.596036
1918.0,0.398083
1920.0,0.355042
1922.0,0.347889
1924.0,0.34012
1926.0,0.315892
1928.0,0.29531
1930.0,0.335332
1932.0,0.345736
1934.0,0.353126
1936.0,0.371363
1938.0,0.350848
1940.0,0.321863
1942.0,0.315888
1944.0,0.322178
1946.0,0.329538
1948.0,0.320813
1950.0,0.316608
1952.0,0.324534
1954.0,0.323497
1956.0,0.34189
1958.0,0.341655
1960.0,0.317413
1962.0,0.318142
1964.0,0.33011
1966.0,0.331178
1968.0,0.33132
1970.0,0.327902
1972.0,0.327035
1974.0,0.327713
1976.0,0.3267
1978.0,0.326658
1980.0,0.326527
1982.0,0.32632
1984.0,0.327763
1986.0,0.328123
1988.0,0.32805
1990.0,0.329735
1992.0,0.328889
1994.0,0.327323
1996.0,0.329096
1998.0,0.331735
2000.0,0.333271
2002.0,0.338225
2004.0,0.341007
2006.0,0.342942
2008.0,0.341145
2010.0,0.326128
2012.0,0.318956
2014.0,0.340062
2016.0,0.349054
2018.0,0.345011
2020.0,0.341356
2022.0,0.339684
2024.0,0.337202
2026.0,0.334253
2028.0,0.332424
2030.0,0.332086
2032.0,0.332829
2034.0,0.335135
2036.0,0.335845
2038.0,0.336295
2040.0,0.337019
2042.0,0.336199
2044.0,0.335994
2046.0,0.335121
2048.0,0.335734
2050.0,0.338662
2052.0,0.340273
2054.0,0.339993
2056.0,0.341403
2058.0,0.340935
2060.0,0.3388
2062.0,0.337208
2064.0,0.336753
2066.0,0.337272
2068.0,0.338597
2070.0,0.337544
2072.0,0.335112
2074.0,0.335715
2076.0,0.339897
2078.0,0.342088
2080.0,0.340803
2082.0,0.340445
2084.0,0.34266
2086.0,0.343078
2088.0,0.342102
2090.0,0.343295
2092.0,0.34194
2094.0,0.340399
2096.0,0.340317
2098.0,0.342166
2100.0,0.342567
2102.0,0.343703
2104.0,0.343411
2106.0,0.344156
2108.0,0.345045
2110.0,0.345587
2112.0,0.345536
2114.0,0.343429
2116.0,0.34016
2118.0,0.339983
2120.0,0.342499
2122.0,0.343223
2124.0,0.344605
2126.0,0.34538
2128.0,0.345299
2130.0,0.344876
2132.0,0.343487
2134.0,0.343115
2136.0,0.341828
2138.0,0.341982
2140.0,0.343747
2142.0,0.344899
2144.0,0.344788
2146.0,0.342721
2148.0,0.340863
2150.0,0.34079
2152.0,0.340505
2154.0,0.340814
2156.0,0.340808
2158.0,0.339352
2160.0,0.339439
2162.0,0.338983
2164.0,0.336766
2166.0,0.33712
2168.0,0.338525
2170.0,0.340099
2172.0,0.337367
2174.0,0.333627
2176.0,0.332357
2178.0,0.332769
2180.0,0.335011
2182.0,0.334755
2184.0,0.333691
2186.0,0.334562
2188.0,0.334588
2190.0,0.331915
2192.0,0.331636
2194.0,0.331305
2196.0,0.328976
2198.0,0.33123
2200.0,0.332665
2202.0,0.328356
2204.0,0.327847
2206.0,0.328015
2208.0,0.32623
2210.0,0.327268
2212.0,0.327727
2214.0,0.325381
2216.0,0.323621
2218.0,0.32341
2220.0,0.326574
2222.0,0.328104
2224.0,0.326575
2226.0,0.327442
2228.0,0.329261
2230.0,0.329508
2232.0,0.329398
2234.0,0.327313
2236.0,0.328258
2238.0,0.330569
2240.0,0.327159
2242.0,0.324884
2244.0,0.327079
2246.0,0.327958
2248.0,0.327601
2250.0,0.327104
2252.0,0.328122
2254.0,0.326044
2256.0,0.323818
2258.0,0.323142
2260.0,0.323993
2262.0,0.326736
2264.0,0.328098
2266.0,0.326192
2268.0,0.323395
2270.0,0.325171
2272.0,0.327442
2274.0,0.32747
2276.0,0.326284
2278.0,0.325175
2280.0,0.324074
2282.0,0.327841
2284.0,0.32864
2286.0,0.327856
2288.0,0.327189
2290.0,0.321297
2292.0,0.321887
2294.0,0.3269
2296.0,0.327981
2298.0,0.326234
2300.0,0.323003
2302.0,0.323701
2304.0,0.32374
2306.0,0.324457
2308.0,0.326479
2310.0,0.326682
2312.0,0.32435
2314.0,0.322303
2316.0,0.325511
2318.0,0.325427
2320.0,0.325821
2322.0,0.329685
2324.0,0.329771
2326.0,0.326946
2328.0,0.32227
2330.0,0.32352
2332.0,0.33107
2334.0,0.333415
2336.0,0.330029
2338.0,0.330136
2340.0,0.328069
2342.0,0.330085
2344.0,0.331809
2346.0,0.327599
2348.0,0.326122
2350.0,0.324753
2352.0,0.325455
2354.0,0.333298
2356.0,0.335178
2358.0,0.328283
2360.0,0.324553
2362.0,0.326961
2364.0,0.328557
2366.0,0.325712
2368.0,0.328936
2370.0,0.334116
2372.0,0.341842
2374.0,0.342244
2376.0,0.333944
2378.0,0.334849
2380.0,0.333963
2382.0,0.329441
2384.0,0.335237
2386.0,0.337734
2388.0,0.322687
2390.0,0.312283
2392.0,0.322528
2394.0,0.330682
2396.0,0.326131
2398.0,0.323715
2400.0,0.330047
2402.0,0.332931
2404.0,0.323891
2406.0,0.322113
2408.0,0.32883
2410.0,0.329887
2412.0,0.33827
2414.0,0.34145
2416.0,0.330017
2418.0,0.325633
2420.0,0.321209
2422.0,0.3208
2424.0,0.321053
2426.0,0.321012
2428.0,0.322613
2430.0,0.323124
2432.0,0.315875
2434.0,0.309911
2436.0,0.296797
2438.0,0.290238
2440.0,0.300719
2442.0,0.309605
2444.0,0.314619
2446.0,0.361469
2448.0,0.397521
2450.0,0.308047
2452.0,0.291828
2454.0,0.300673
2456.0,0.308888
2458.0,0.328548
2460.0,0.324751
2462.0,0.315375
2464.0,0.316738
2466.0,0.309463
2468.0,0.30116
2470.0,0.320508
2472.0,0.351397
2474.0,0.385356
2476.0,0.382122
2478.0,0.368959
2480.0,0.386861
2482.0,0.359962
2484.0,0.450931
2486.0,0.5725
2488.0,0.276354
2490.0,0.140088
2492.0,0.205056
2494.0,0.396412
2496.0,0.312231
2498.0,0.27141
2500.0,0.315695