File: data/spectra_ascii/AsphaltTrockenVerschmutzung2___corthum00450.txt
Wavelength (nm),Reflectance
350.0,0.079077
352.0,0.0798863
354.0,0.0804615
356.0,0.0801656
358.0,0.0809765
360.0,0.0814235
362.0,0.0824677
364.0,0.0822402
366.0,0.0831743
368.0,0.0840533
370.0,0.084032
372.0,0.0851571
374.0,0.0857911
376.0,0.0862188
378.0,0.0872613
380.0,0.0883048
382.0,0.0889339
384.0,0.0895701
386.0,0.0901937
388.0,0.0908916
390.0,0.0916879
392.0,0.0920133
394.0,0.0928635
396.0,0.0936167
398.0,0.0944684
400.0,0.0948928
402.0,0.0956668
404.0,0.0961589
406.0,0.0966563
408.0,0.0973652
410.0,0.097919
412.0,0.0986016
414.0,0.0992232
416.0,0.0998621
418.0,0.100652
420.0,0.101191
422.0,0.101906
424.0,0.102541
426.0,0.103313
428.0,0.104024
430.0,0.104878
432.0,0.105758
434.0,0.106551
436.0,0.107218
438.0,0.108002
440.0,0.108718
442.0,0.109451
444.0,0.110092
446.0,0.110798
448.0,0.111388
450.0,0.112037
452.0,0.112645
454.0,0.113268
456.0,0.11387
458.0,0.114404
460.0,0.114995
462.0,0.115479
464.0,0.116054
466.0,0.116594
468.0,0.117119
470.0,0.117663
472.0,0.11819
474.0,0.118719
476.0,0.119233
478.0,0.119795
480.0,0.120409
482.0,0.12107
484.0,0.121569
486.0,0.12228
488.0,0.122983
490.0,0.12362
492.0,0.124308
494.0,0.125014
496.0,0.125646
498.0,0.126485
500.0,0.127188
502.0,0.127882
504.0,0.128614
506.0,0.129343
508.0,0.130045
510.0,0.130777
512.0,0.131457
514.0,0.132251
516.0,0.132937
518.0,0.133838
520.0,0.134615
522.0,0.135347
524.0,0.13611
526.0,0.136951
528.0,0.137857
530.0,0.13869
532.0,0.139577
534.0,0.140556
536.0,0.141501
538.0,0.142479
540.0,0.143543
542.0,0.144654
544.0,0.145668
546.0,0.146772
548.0,0.147906
550.0,0.149135
552.0,0.150364
554.0,0.151627
556.0,0.152924
558.0,0.154226
560.0,0.155519
562.0,0.156787
564.0,0.157947
566.0,0.159164
568.0,0.160435
570.0,0.161585
572.0,0.162759
574.0,0.163945
576.0,0.16503
578.0,0.166146
580.0,0.167145
582.0,0.168189
584.0,0.169151
586.0,0.170188
588.0,0.17115
590.0,0.172187
592.0,0.173015
594.0,0.173802
596.0,0.174639
598.0,0.175404
600.0,0.176162
602.0,0.176942
604.0,0.177684
606.0,0.178496
608.0,0.179087
610.0,0.179802
612.0,0.1805
614.0,0.181187
616.0,0.181841
618.0,0.18256
620.0,0.183171
622.0,0.183854
624.0,0.184446
626.0,0.185132
628.0,0.185787
630.0,0.186352
632.0,0.186941
634.0,0.18755
636.0,0.188193
638.0,0.188777
640.0,0.189323
642.0,0.189914
644.0,0.190505
646.0,0.191069
648.0,0.191555
650.0,0.192214
652.0,0.192733
654.0,0.193201
656.0,0.193785
658.0,0.194268
660.0,0.194781
662.0,0.195203
664.0,0.195709
666.0,0.19617
668.0,0.196625
670.0,0.197123
672.0,0.197555
674.0,0.19806
676.0,0.19849
678.0,0.198941
680.0,0.199269
682.0,0.199702
684.0,0.20023
686.0,0.20066
688.0,0.201208
690.0,0.201572
692.0,0.201921
694.0,0.202326
696.0,0.202654
698.0,0.203039
700.0,0.203437
702.0,0.203821
704.0,0.204195
706.0,0.204526
708.0,0.204871
710.0,0.205284
712.0,0.205606
714.0,0.206021
716.0,0.206526
718.0,0.207096
720.0,0.207476
722.0,0.207696
724.0,0.208146
726.0,0.208634
728.0,0.208974
730.0,0.209366
732.0,0.209755
734.0,0.210036
736.0,0.21049
738.0,0.210935
740.0,0.211377
742.0,0.211806
744.0,0.212207
746.0,0.212582
748.0,0.213053
750.0,0.213505
752.0,0.213984
754.0,0.214432
756.0,0.214885
758.0,0.215413
760.0,0.215958
762.0,0.216855
764.0,0.217335
766.0,0.21753
768.0,0.217775
770.0,0.217917
772.0,0.21831
774.0,0.218716
776.0,0.219085
778.0,0.219524
780.0,0.21993
782.0,0.220338
784.0,0.220739
786.0,0.221114
788.0,0.221514
790.0,0.221885
792.0,0.222285
794.0,0.222626
796.0,0.223003
798.0,0.223382
800.0,0.223746
802.0,0.22408
804.0,0.224356
806.0,0.224767
808.0,0.225153
810.0,0.225464
812.0,0.225878
814.0,0.226259
816.0,0.226731
818.0,0.226984
820.0,0.22724
822.0,0.227535
824.0,0.227822
826.0,0.228089
828.0,0.228489
830.0,0.228706
832.0,0.22891
834.0,0.229309
836.0,0.229403
838.0,0.22971
840.0,0.229912
842.0,0.230186
844.0,0.230519
846.0,0.230773
848.0,0.231001
850.0,0.231145
852.0,0.231524
854.0,0.231937
856.0,0.23212
858.0,0.232271
860.0,0.232622
862.0,0.232794
864.0,0.232966
866.0,0.233245
868.0,0.233447
870.0,0.233596
872.0,0.23389
874.0,0.234064
876.0,0.234398
878.0,0.234557
880.0,0.234819
882.0,0.235099
884.0,0.235162
886.0,0.235633
888.0,0.235971
890.0,0.235932
892.0,0.236328
894.0,0.236821
896.0,0.236917
898.0,0.237093
900.0,0.237308
902.0,0.237553
904.0,0.237866
906.0,0.237701
908.0,0.238116
910.0,0.238636
912.0,0.238578
914.0,0.238743
916.0,0.239162
918.0,0.23923
920.0,0.239236
922.0,0.239319
924.0,0.240115
926.0,0.240197
928.0,0.239801
930.0,0.239573
932.0,0.238843
934.0,0.238443
936.0,0.23855
938.0,0.239504
940.0,0.240291
942.0,0.240453
944.0,0.239707
946.0,0.240842
948.0,0.23995
950.0,0.241071
952.0,0.241421
954.0,0.241288
956.0,0.241972
958.0,0.241599
960.0,0.24255
962.0,0.242746
964.0,0.242873
966.0,0.243456
968.0,0.243831
970.0,0.243342
972.0,0.243569
974.0,0.243586
976.0,0.243266
978.0,0.243253
980.0,0.244116
982.0,0.243873
984.0,0.244402
986.0,0.245381
988.0,0.24477
990.0,0.244739
992.0,0.245215
994.0,0.245017
996.0,0.244563
998.0,0.245253
1000.0,0.244868
1002.0,0.24991
1004.0,0.250074
1006.0,0.250302
1008.0,0.250209
1010.0,0.250091
1012.0,0.249978
1014.0,0.250466
1016.0,0.25067
1018.0,0.251025
1020.0,0.250785
1022.0,0.250666
1024.0,0.250903
1026.0,0.25093
1028.0,0.250823
1030.0,0.251271
1032.0,0.25126
1034.0,0.251234
1036.0,0.251199
1038.0,0.251653
1040.0,0.252039
1042.0,0.252305
1044.0,0.252281
1046.0,0.25187
1048.0,0.252077
1050.0,0.252361
1052.0,0.252644
1054.0,0.252889
1056.0,0.253
1058.0,0.252652
1060.0,0.252478
1062.0,0.2526
1064.0,0.25281
1066.0,0.252904
1068.0,0.252724
1070.0,0.252393
1072.0,0.252948
1074.0,0.253151
1076.0,0.253101
1078.0,0.253135
1080.0,0.253311
1082.0,0.253346
1084.0,0.253608
1086.0,0.253452
1088.0,0.253629
1090.0,0.254072
1092.0,0.254095
1094.0,0.25409
1096.0,0.254272
1098.0,0.254364
1100.0,0.254533
1102.0,0.254609
1104.0,0.254174
1106.0,0.254214
1108.0,0.254849
1110.0,0.255262
1112.0,0.255364
1114.0,0.255013
1116.0,0.255096
1118.0,0.255157
1120.0,0.254819
1122.0,0.255292
1124.0,0.255235
1126.0,0.255448
1128.0,0.255241
1130.0,0.255108
1132.0,0.255082
1134.0,0.254291
1136.0,0.254743
1138.0,0.25603
1140.0,0.256427
1142.0,0.255994
1144.0,0.256329
1146.0,0.256431
1148.0,0.256576
1150.0,0.25655
1152.0,0.256985
1154.0,0.25726
1156.0,0.257705
1158.0,0.258045
1160.0,0.257762
1162.0,0.257229
1164.0,0.25706
1166.0,0.257626
1168.0,0.257823
1170.0,0.257762
1172.0,0.257846
1174.0,0.257918
1176.0,0.257893
1178.0,0.257934
1180.0,0.258163
1182.0,0.258438
1184.0,0.258648
1186.0,0.258997
1188.0,0.259004
1190.0,0.259213
1192.0,0.259425
1194.0,0.259314
1196.0,0.25928
1198.0,0.25944
1200.0,0.259531
1202.0,0.259398
1204.0,0.259356
1206.0,0.259442
1208.0,0.259428
1210.0,0.259693
1212.0,0.259802
1214.0,0.259867
1216.0,0.260213
1218.0,0.26018
1220.0,0.259816
1222.0,0.259827
1224.0,0.25985
1226.0,0.259991
1228.0,0.260139
1230.0,0.260169
1232.0,0.260076
1234.0,0.259808
1236.0,0.259711
1238.0,0.25956
1240.0,0.259302
1242.0,0.259162
1244.0,0.259548
1246.0,0.259796
1248.0,0.259839
1250.0,0.259994
1252.0,0.260214
1254.0,0.260321
1256.0,0.260273
1258.0,0.260378
1260.0,0.260214
1262.0,0.260142
1264.0,0.260278
1266.0,0.260201
1268.0,0.260086
1270.0,0.259973
1272.0,0.260169
1274.0,0.26021
1276.0,0.259973
1278.0,0.25998
1280.0,0.260078
1282.0,0.260029
1284.0,0.260102
1286.0,0.260154
1288.0,0.260278
1290.0,0.26021
1292.0,0.260063
1294.0,0.260201
1296.0,0.260419
1298.0,0.260337
1300.0,0.260317
1302.0,0.260352
1304.0,0.260447
1306.0,0.260481
1308.0,0.260553
1310.0,0.260697
1312.0,0.260803
1314.0,0.260758
1316.0,0.260631
1318.0,0.260529
1320.0,0.260649
1322.0,0.260963
1324.0,0.261434
1326.0,0.26171
1328.0,0.261802
1330.0,0.261558
1332.0,0.261143
1334.0,0.261612
1336.0,0.262066
1338.0,0.262416
1340.0,0.262574
1342.0,0.262832
1344.0,0.263997
1346.0,0.264154
1348.0,0.263381
1350.0,0.263784
1352.0,0.264326
1354.0,0.267471
1356.0,0.272397
1358.0,0.278874
1360.0,0.26554
1362.0,0.35177
1364.0,0.558962
1366.0,0.221585
1368.0,0.191901
1370.0,0.367918
1372.0,0.537226
1374.0,0.549462
1376.0,0.352925
1378.0,0.308999
1380.0,0.356412
1382.0,0.369516
1384.0,0.340802
1386.0,0.350245
1388.0,0.321409
1390.0,0.319911
1392.0,0.287519
1394.0,0.282845
1396.0,0.274048
1398.0,0.249871
1400.0,0.2562
1402.0,0.264822
1404.0,0.260789
1406.0,0.257272
1408.0,0.265926
1410.0,0.263215
1412.0,0.257777
1414.0,0.259551
1416.0,0.26178
1418.0,0.265101
1420.0,0.263978
1422.0,0.26228
1424.0,0.262043
1426.0,0.26084
1428.0,0.261912
1430.0,0.264288
1432.0,0.266613
1434.0,0.266061
1436.0,0.265905
1438.0,0.26492
1440.0,0.265261
1442.0,0.264074
1444.0,0.264698
1446.0,0.264951
1448.0,0.264444
1450.0,0.264451
1452.0,0.264707
1454.0,0.265564
1456.0,0.265724
1458.0,0.265479
1460.0,0.265781
1462.0,0.266464
1464.0,0.267392
1466.0,0.267184
1468.0,0.266009
1470.0,0.265865
1472.0,0.266139
1474.0,0.266178
1476.0,0.266729
1478.0,0.267869
1480.0,0.26787
1482.0,0.267536
1484.0,0.267529
1486.0,0.267415
1488.0,0.267901
1490.0,0.267713
1492.0,0.267936
1494.0,0.268351
1496.0,0.268406
1498.0,0.268946
1500.0,0.268747
1502.0,0.268189
1504.0,0.268003
1506.0,0.268111
1508.0,0.268197
1510.0,0.268272
1512.0,0.268421
1514.0,0.268325
1516.0,0.268361
1518.0,0.268278
1520.0,0.268275
1522.0,0.26851
1524.0,0.268453
1526.0,0.268874
1528.0,0.269105
1530.0,0.268993
1532.0,0.268622
1534.0,0.268361
1536.0,0.268371
1538.0,0.268698
1540.0,0.268458
1542.0,0.268274
1544.0,0.268036
1546.0,0.268207
1548.0,0.26841
1550.0,0.268286
1552.0,0.268186
1554.0,0.268092
1556.0,0.267934
1558.0,0.268222
1560.0,0.268424
1562.0,0.268267
1564.0,0.268146
1566.0,0.268073
1568.0,0.268249
1570.0,0.268256
1572.0,0.267937
1574.0,0.267913
1576.0,0.267974
1578.0,0.268177
1580.0,0.268201
1582.0,0.267769
1584.0,0.267646
1586.0,0.268227
1588.0,0.268144
1590.0,0.267511
1592.0,0.26738
1594.0,0.267584
1596.0,0.267775
1598.0,0.267614
1600.0,0.267568
1602.0,0.26719
1604.0,0.266678
1606.0,0.266956
1608.0,0.267015
1610.0,0.266963
1612.0,0.266729
1614.0,0.265635
1616.0,0.265635
1618.0,0.265908
1620.0,0.265209
1622.0,0.265138
1624.0,0.265345
1626.0,0.265577
1628.0,0.26578
1630.0,0.265857
1632.0,0.265763
1634.0,0.265439
1636.0,0.264997
1638.0,0.264833
1640.0,0.264832
1642.0,0.264757
1644.0,0.264488
1646.0,0.264301
1648.0,0.263994
1650.0,0.263971
1652.0,0.263916
1654.0,0.263606
1656.0,0.263817
1658.0,0.26446
1660.0,0.264664
1662.0,0.264449
1664.0,0.263968
1666.0,0.263589
1668.0,0.264333
1670.0,0.264523
1672.0,0.263847
1674.0,0.263707
1676.0,0.26406
1678.0,0.264773
1680.0,0.264969
1682.0,0.264394
1684.0,0.264758
1686.0,0.265212
1688.0,0.265409
1690.0,0.265161
1692.0,0.264666
1694.0,0.264712
1696.0,0.264801
1698.0,0.26531
1700.0,0.265934
1702.0,0.265432
1704.0,0.265487
1706.0,0.2658
1708.0,0.265454
1710.0,0.26533
1712.0,0.265324
1714.0,0.264976
1716.0,0.265047
1718.0,0.264895
1720.0,0.264844
1722.0,0.264705
1724.0,0.264601
1726.0,0.264863
1728.0,0.264623
1730.0,0.264567
1732.0,0.265003
1734.0,0.265132
1736.0,0.265119
1738.0,0.264833
1740.0,0.264621
1742.0,0.265602
1744.0,0.265611
1746.0,0.265106
1748.0,0.265315
1750.0,0.265384
1752.0,0.26504
1754.0,0.26484
1756.0,0.264102
1758.0,0.264382
1760.0,0.265724
1762.0,0.26657
1764.0,0.266633
1766.0,0.265218
1768.0,0.265444
1770.0,0.264552
1772.0,0.263816
1774.0,0.265438
1776.0,0.265204
1778.0,0.264479
1780.0,0.264873
1782.0,0.264837
1784.0,0.264713
1786.0,0.264678
1788.0,0.265577
1790.0,0.266625
1792.0,0.265634
1794.0,0.264523
1796.0,0.265681
1798.0,0.26376
1800.0,0.262679
1802.0,0.259587
1804.0,0.258471
1806.0,0.264024
1808.0,0.267943
1810.0,0.26467
1812.0,0.272105
1814.0,0.296251
1816.0,0.305089
1818.0,0.28664
1820.0,0.267379
1822.0,0.284243
1824.0,0.292217
1826.0,0.291289
1828.0,0.256707
1830.0,0.33676
1832.0,0.592959
1834.0,0.0
1836.0,0.0
1838.0,0.0
1840.0,0.463346
1842.0,0.496417
1844.0,0.355888
1846.0,0.52146
1848.0,0.82344
1850.0,1.0
1852.0,0.483657
1854.0,0.395429
1856.0,0.772504
1858.0,0.376105
1860.0,0.102063
1862.0,1.0
1864.0,0.774867
1866.0,0.362075
1868.0,0.821595
1870.0,1.0
1872.0,1.0
1874.0,0.0
1876.0,0.0
1878.0,1.0
1880.0,0.901105
1882.0,0.725171
1884.0,0.349847
1886.0,0.349638
1888.0,0.373779
1890.0,0.305694
1892.0,0.27341
1894.0,0.271899
1896.0,0.344565
1898.0,0.401184
1900.0,0.329367
1902.0,0.27793
1904.0,0.165959
1906.0,0.0
1908.0,0.0275318
1910.0,0.334641
1912.0,0.481021
1914.0,0.305275
1916.0,0.603049
1918.0,0.424468
1920.0,0.275915
1922.0,0.244122
1924.0,0.265802
1926.0,0.286398
1928.0,0.258008
1930.0,0.263376
1932.0,0.288276
1934.0,0.277225
1936.0,0.25629
1938.0,0.266205
1940.0,0.282347
1942.0,0.287338
1944.0,0.278939
1946.0,0.269967
1948.0,0.26188
1950.0,0.252388
1952.0,0.264331
1954.0,0.265599
1956.0,0.262744
1958.0,0.261923
1960.0,0.265266
1962.0,0.272274
1964.0,0.26569
1966.0,0.259503
1968.0,0.261749
1970.0,0.264287
1972.0,0.261087
1974.0,0.261593
1976.0,0.262825
1978.0,0.260328
1980.0,0.259621
1982.0,0.261447
1984.0,0.260749
1986.0,0.258959
1988.0,0.258855
1990.0,0.259468
1992.0,0.26055
1994.0,0.261542
1996.0,0.262135
1998.0,0.262785
2000.0,0.265791
2002.0,0.265569
2004.0,0.263965
2006.0,0.266352
2008.0,0.263951
2010.0,0.261577
2012.0,0.267209
2014.0,0.274581
2016.0,0.269993
2018.0,0.259208
2020.0,0.261977
2022.0,0.262329
2024.0,0.264653
2026.0,0.266458
2028.0,0.263613
2030.0,0.261539
2032.0,0.261928
2034.0,0.263422
2036.0,0.264627
2038.0,0.265619
2040.0,0.265609
2042.0,0.265191
2044.0,0.266646
2046.0,0.269463
2048.0,0.269713
2050.0,0.267519
2052.0,0.267127
2054.0,0.268673
2056.0,0.271863
2058.0,0.271578
2060.0,0.270314
2062.0,0.271377
2064.0,0.271344
2066.0,0.268213
2068.0,0.268157
2070.0,0.270234
2072.0,0.272332
2074.0,0.27147
2076.0,0.268809
2078.0,0.266607
2080.0,0.267755
2082.0,0.267562
2084.0,0.26556
2086.0,0.267834
2088.0,0.271125
2090.0,0.2708
2092.0,0.270793
2094.0,0.271258
2096.0,0.270452
2098.0,0.269493
2100.0,0.269159
2102.0,0.269744
2104.0,0.271058
2106.0,0.271662
2108.0,0.271379
2110.0,0.2717
2112.0,0.271328
2114.0,0.271981
2116.0,0.272636
2118.0,0.271415
2120.0,0.270524
2122.0,0.26926
2124.0,0.269225
2126.0,0.269731
2128.0,0.269029
2130.0,0.269099
2132.0,0.270322
2134.0,0.27093
2136.0,0.27086
2138.0,0.269554
2140.0,0.267767
2142.0,0.266058
2144.0,0.267828
2146.0,0.269934
2148.0,0.269706
2150.0,0.268768
2152.0,0.266556
2154.0,0.266757
2156.0,0.267601
2158.0,0.26652
2160.0,0.267206
2162.0,0.268538
2164.0,0.269813
2166.0,0.269537
2168.0,0.2678
2170.0,0.266449
2172.0,0.263962
2174.0,0.260376
2176.0,0.259849
2178.0,0.261682
2180.0,0.26401
2182.0,0.265095
2184.0,0.262998
2186.0,0.26032
2188.0,0.258652
2190.0,0.258453
2192.0,0.258536
2194.0,0.260238
2196.0,0.260035
2198.0,0.257581
2200.0,0.258074
2202.0,0.257802
2204.0,0.254516
2206.0,0.252619
2208.0,0.253969
2210.0,0.255788
2212.0,0.25644
2214.0,0.256699
2216.0,0.256923
2218.0,0.256602
2220.0,0.255821
2222.0,0.255369
2224.0,0.254847
2226.0,0.254888
2228.0,0.254048
2230.0,0.255018
2232.0,0.254816
2234.0,0.252769
2236.0,0.253978
2238.0,0.254047
2240.0,0.254218
2242.0,0.256267
2244.0,0.255944
2246.0,0.256297
2248.0,0.258455
2250.0,0.257911
2252.0,0.252768
2254.0,0.248064
2256.0,0.248793
2258.0,0.253698
2260.0,0.256242
2262.0,0.256667
2264.0,0.25378
2266.0,0.25344
2268.0,0.258275
2270.0,0.259403
2272.0,0.256237
2274.0,0.255608
2276.0,0.25655
2278.0,0.256978
2280.0,0.255442
2282.0,0.254698
2284.0,0.253847
2286.0,0.251169
2288.0,0.250781
2290.0,0.2516
2292.0,0.255049
2294.0,0.256232
2296.0,0.253044
2298.0,0.252704
2300.0,0.252266
2302.0,0.254613
2304.0,0.252514
2306.0,0.24917
2308.0,0.249621
2310.0,0.249837
2312.0,0.250689
2314.0,0.25282
2316.0,0.252392
2318.0,0.255456
2320.0,0.258463
2322.0,0.255137
2324.0,0.254641
2326.0,0.255068
2328.0,0.255951
2330.0,0.250677
2332.0,0.248802
2334.0,0.254094
2336.0,0.256377
2338.0,0.252417
2340.0,0.249871
2342.0,0.248978
2344.0,0.251559
2346.0,0.255028
2348.0,0.250041
2350.0,0.248318
2352.0,0.25684
2354.0,0.262507
2356.0,0.25651
2358.0,0.256717
2360.0,0.259954
2362.0,0.260644
2364.0,0.259977
2366.0,0.253405
2368.0,0.249735
2370.0,0.250188
2372.0,0.25006
2374.0,0.250236
2376.0,0.249742
2378.0,0.241389
2380.0,0.242452
2382.0,0.255594
2384.0,0.269286
2386.0,0.280738
2388.0,0.270934
2390.0,0.251249
2392.0,0.246398
2394.0,0.256745
2396.0,0.253512
2398.0,0.246296
2400.0,0.246015
2402.0,0.254948
2404.0,0.254063
2406.0,0.251779
2408.0,0.273345
2410.0,0.284399
2412.0,0.254771
2414.0,0.233779
2416.0,0.219684
2418.0,0.215484
2420.0,0.234682
2422.0,0.272311
2424.0,0.276263
2426.0,0.256943
2428.0,0.254181
2430.0,0.256244
2432.0,0.257174
2434.0,0.260587
2436.0,0.252044
2438.0,0.24182
2440.0,0.250008
2442.0,0.251985
2444.0,0.270412
2446.0,0.330861
2448.0,0.302892
2450.0,0.242117
2452.0,0.262574
2454.0,0.241801
2456.0,0.237059
2458.0,0.274279
2460.0,0.280203
2462.0,0.250173
2464.0,0.271222
2466.0,0.335364
2468.0,0.332531
2470.0,0.276315
2472.0,0.251406
2474.0,0.256092
2476.0,0.278335
2478.0,0.313427
2480.0,0.239907
2482.0,0.163488
2484.0,0.169727
2486.0,0.245644
2488.0,0.167229
2490.0,0.187404
2492.0,0.565596
2494.0,0.234147
2496.0,0.410903
2498.0,0.987971
2500.0,0.332422