File: data/spectra_ascii/AsphaltNassPfuetzen___corthum00447.txt
Wavelength (nm),Reflectance
350.0,0.0266521
352.0,0.026102
354.0,0.026539
356.0,0.0259629
358.0,0.0255465
360.0,0.0249633
362.0,0.0250573
364.0,0.0250439
366.0,0.0250298
368.0,0.0247962
370.0,0.0242535
372.0,0.0244211
374.0,0.0245068
376.0,0.0245994
378.0,0.0248067
380.0,0.0246777
382.0,0.0248565
384.0,0.024427
386.0,0.0245682
388.0,0.0245767
390.0,0.0245681
392.0,0.0245532
394.0,0.0242869
396.0,0.024236
398.0,0.0241922
400.0,0.0239986
402.0,0.0238973
404.0,0.0237346
406.0,0.0239485
408.0,0.0238294
410.0,0.0239685
412.0,0.023853
414.0,0.0238679
416.0,0.0240447
418.0,0.0240498
420.0,0.0240306
422.0,0.0240637
424.0,0.0240497
426.0,0.0242525
428.0,0.0244231
430.0,0.0245006
432.0,0.0245545
434.0,0.0246443
436.0,0.0246852
438.0,0.0248051
440.0,0.0249159
442.0,0.025028
444.0,0.0251078
446.0,0.025194
448.0,0.02525
450.0,0.0252965
452.0,0.0254012
454.0,0.0255245
456.0,0.0256065
458.0,0.0256586
460.0,0.0257635
462.0,0.025826
464.0,0.0259321
466.0,0.025994
468.0,0.0261298
470.0,0.0262643
472.0,0.0263573
474.0,0.0264576
476.0,0.0265672
478.0,0.0266493
480.0,0.0267459
482.0,0.0268397
484.0,0.0269323
486.0,0.0271236
488.0,0.0273021
490.0,0.027361
492.0,0.0275226
494.0,0.0276204
496.0,0.0277124
498.0,0.0278749
500.0,0.0280576
502.0,0.0281522
504.0,0.0283681
506.0,0.0284588
508.0,0.0286234
510.0,0.0287377
512.0,0.0288699
514.0,0.029105
516.0,0.0291988
518.0,0.0293506
520.0,0.029569
522.0,0.0296526
524.0,0.0298389
526.0,0.0300137
528.0,0.0301866
530.0,0.030381
532.0,0.0306287
534.0,0.0307947
536.0,0.0309889
538.0,0.0311968
540.0,0.031508
542.0,0.0317328
544.0,0.0320101
546.0,0.0322013
548.0,0.0324633
550.0,0.0327364
552.0,0.0330209
554.0,0.0333067
556.0,0.033598
558.0,0.033859
560.0,0.034173
562.0,0.0344741
564.0,0.034806
566.0,0.0351254
568.0,0.0353597
570.0,0.0356343
572.0,0.0358955
574.0,0.0361499
576.0,0.0364448
578.0,0.0366645
580.0,0.0369493
582.0,0.0371661
584.0,0.0374548
586.0,0.0377137
588.0,0.0379904
590.0,0.0382454
592.0,0.0384648
594.0,0.0386347
596.0,0.0389206
598.0,0.0390775
600.0,0.0392177
602.0,0.0394427
604.0,0.0396266
606.0,0.0398417
608.0,0.0400594
610.0,0.0402787
612.0,0.0404746
614.0,0.0406536
616.0,0.0408325
618.0,0.0410235
620.0,0.0412701
622.0,0.0414382
624.0,0.0417104
626.0,0.0419189
628.0,0.0421961
630.0,0.0424003
632.0,0.0425816
634.0,0.0427737
636.0,0.0429642
638.0,0.0431766
640.0,0.0433749
642.0,0.0435797
644.0,0.0438591
646.0,0.0440081
648.0,0.0442898
650.0,0.0445111
652.0,0.0446809
654.0,0.044907
656.0,0.045168
658.0,0.0453082
660.0,0.0455341
662.0,0.0457723
664.0,0.0458468
666.0,0.046108
668.0,0.0462813
670.0,0.0464845
672.0,0.0466957
674.0,0.0468765
676.0,0.0471337
678.0,0.0473297
680.0,0.0474612
682.0,0.0476538
684.0,0.0479175
686.0,0.0483283
688.0,0.0488284
690.0,0.0489048
692.0,0.0489508
694.0,0.0491351
696.0,0.0492587
698.0,0.0493921
700.0,0.0496269
702.0,0.0498418
704.0,0.0500158
706.0,0.0501786
708.0,0.0504175
710.0,0.0505418
712.0,0.0508043
714.0,0.0510832
716.0,0.0514381
718.0,0.0520248
720.0,0.0521499
722.0,0.0521738
724.0,0.0525146
726.0,0.0527411
728.0,0.0529183
730.0,0.0530587
732.0,0.0531972
734.0,0.0532577
736.0,0.0533961
738.0,0.0536255
740.0,0.0538493
742.0,0.0540518
744.0,0.0542754
746.0,0.0544681
748.0,0.0547529
750.0,0.0549088
752.0,0.0551495
754.0,0.0554268
756.0,0.0555904
758.0,0.0559314
760.0,0.0572648
762.0,0.0584998
764.0,0.0582017
766.0,0.057522
768.0,0.057193
770.0,0.0572463
772.0,0.0574572
774.0,0.0576716
776.0,0.0578795
778.0,0.0580522
780.0,0.0583091
782.0,0.0585385
784.0,0.0587359
786.0,0.0590027
788.0,0.0592456
790.0,0.0594488
792.0,0.0596407
794.0,0.0598542
796.0,0.0600925
798.0,0.060285
800.0,0.0605053
802.0,0.0607559
804.0,0.0608895
806.0,0.0610682
808.0,0.0612168
810.0,0.061542
812.0,0.061827
814.0,0.0623119
816.0,0.0625922
818.0,0.0626339
820.0,0.0627579
822.0,0.0630114
824.0,0.0630552
826.0,0.0630819
828.0,0.0632733
830.0,0.0633172
832.0,0.0634322
834.0,0.0636398
836.0,0.0637205
838.0,0.0637849
840.0,0.0638627
842.0,0.0640055
844.0,0.0640485
846.0,0.0642553
848.0,0.0644101
850.0,0.0645494
852.0,0.0648193
854.0,0.0649559
856.0,0.0650772
858.0,0.0651396
860.0,0.0653335
862.0,0.0652302
864.0,0.0655522
866.0,0.065751
868.0,0.0657431
870.0,0.065826
872.0,0.0659734
874.0,0.0662532
876.0,0.0664251
878.0,0.0664792
880.0,0.0665155
882.0,0.0666097
884.0,0.0668613
886.0,0.0669939
888.0,0.067157
890.0,0.0672768
892.0,0.0675291
894.0,0.067643
896.0,0.0681549
898.0,0.0683116
900.0,0.0683682
902.0,0.0685427
904.0,0.0682774
906.0,0.0687928
908.0,0.0688709
910.0,0.068762
912.0,0.0690672
914.0,0.06938
916.0,0.0691466
918.0,0.0691512
920.0,0.068843
922.0,0.0689781
924.0,0.0689453
926.0,0.0691422
928.0,0.0695116
930.0,0.0704668
932.0,0.070876
934.0,0.072127
936.0,0.0717682
938.0,0.0708399
940.0,0.0709993
942.0,0.0702432
944.0,0.0706248
946.0,0.070716
948.0,0.0697048
950.0,0.0693512
952.0,0.0696688
954.0,0.0684903
956.0,0.0680602
958.0,0.067771
960.0,0.067215
962.0,0.0663934
964.0,0.0663602
966.0,0.0666513
968.0,0.0657851
970.0,0.066221
972.0,0.0663088
974.0,0.0660856
976.0,0.0657887
978.0,0.0660454
980.0,0.0659235
982.0,0.066158
984.0,0.0659577
986.0,0.0662901
988.0,0.0656983
990.0,0.066538
992.0,0.0661982
994.0,0.0661083
996.0,0.0663841
998.0,0.066345
1000.0,0.0671014
1002.0,0.0667599
1004.0,0.0670361
1006.0,0.0673677
1008.0,0.0673422
1010.0,0.0675217
1012.0,0.067769
1014.0,0.0677327
1016.0,0.0678761
1018.0,0.0684401
1020.0,0.0687838
1022.0,0.0687093
1024.0,0.0688355
1026.0,0.0689535
1028.0,0.0696065
1030.0,0.0702169
1032.0,0.0702719
1034.0,0.0703953
1036.0,0.0705124
1038.0,0.0710371
1040.0,0.0713917
1042.0,0.0714804
1044.0,0.0713622
1046.0,0.0712869
1048.0,0.0715675
1050.0,0.0720521
1052.0,0.0722097
1054.0,0.0722285
1056.0,0.0721458
1058.0,0.0724093
1060.0,0.0726491
1062.0,0.0727839
1064.0,0.0727775
1066.0,0.0727608
1068.0,0.0731208
1070.0,0.0731052
1072.0,0.0728728
1074.0,0.0731068
1076.0,0.0732998
1078.0,0.0734076
1080.0,0.0734071
1082.0,0.0730823
1084.0,0.072965
1086.0,0.0728321
1088.0,0.0728363
1090.0,0.073192
1092.0,0.0731994
1094.0,0.0730883
1096.0,0.0731027
1098.0,0.0732717
1100.0,0.0733186
1102.0,0.0732022
1104.0,0.0728917
1106.0,0.0727903
1108.0,0.0728214
1110.0,0.0729892
1112.0,0.0733527
1114.0,0.0733673
1116.0,0.0731812
1118.0,0.0732953
1120.0,0.0736042
1122.0,0.0740116
1124.0,0.0740664
1126.0,0.0736539
1128.0,0.0727918
1130.0,0.0729385
1132.0,0.0722583
1134.0,0.0710088
1136.0,0.0699998
1138.0,0.0686894
1140.0,0.0679114
1142.0,0.0675475
1144.0,0.0663964
1146.0,0.065455
1148.0,0.0646164
1150.0,0.0633956
1152.0,0.0620835
1154.0,0.0613919
1156.0,0.0608113
1158.0,0.0604135
1160.0,0.0598213
1162.0,0.0594863
1164.0,0.0592564
1166.0,0.0590956
1168.0,0.0589028
1170.0,0.0587582
1172.0,0.0586657
1174.0,0.058633
1176.0,0.0585564
1178.0,0.0582642
1180.0,0.0584115
1182.0,0.0583369
1184.0,0.0580345
1186.0,0.0580497
1188.0,0.0580646
1190.0,0.057937
1192.0,0.0578405
1194.0,0.0578793
1196.0,0.0577354
1198.0,0.0577433
1200.0,0.0578575
1202.0,0.057852
1204.0,0.0578513
1206.0,0.0579767
1208.0,0.0581018
1210.0,0.0581277
1212.0,0.0582513
1214.0,0.0582278
1216.0,0.0579822
1218.0,0.05808
1220.0,0.0582668
1222.0,0.0583468
1224.0,0.0583383
1226.0,0.0583605
1228.0,0.0583496
1230.0,0.0584642
1232.0,0.0586744
1234.0,0.0588734
1236.0,0.0589899
1238.0,0.0590525
1240.0,0.0591355
1242.0,0.0592926
1244.0,0.0595958
1246.0,0.0597337
1248.0,0.0595395
1250.0,0.0597196
1252.0,0.0600208
1254.0,0.0601529
1256.0,0.0602962
1258.0,0.0604625
1260.0,0.0607658
1262.0,0.0608044
1264.0,0.0608169
1266.0,0.0611052
1268.0,0.0612107
1270.0,0.0609617
1272.0,0.0609081
1274.0,0.0608912
1276.0,0.0607242
1278.0,0.0605796
1280.0,0.0604471
1282.0,0.0604772
1284.0,0.0603373
1286.0,0.0598437
1288.0,0.0595958
1290.0,0.0595188
1292.0,0.0594888
1294.0,0.0594111
1296.0,0.0590934
1298.0,0.0586634
1300.0,0.0584035
1302.0,0.0581838
1304.0,0.0577927
1306.0,0.0573509
1308.0,0.0567812
1310.0,0.0564596
1312.0,0.0561517
1314.0,0.0555861
1316.0,0.0548962
1318.0,0.0543556
1320.0,0.0538605
1322.0,0.0531174
1324.0,0.0523465
1326.0,0.0519357
1328.0,0.0514518
1330.0,0.0506121
1332.0,0.0500636
1334.0,0.0495472
1336.0,0.0487982
1338.0,0.0480123
1340.0,0.0472453
1342.0,0.0470098
1344.0,0.0469455
1346.0,0.0466087
1348.0,0.0458508
1350.0,0.0457289
1352.0,0.0468313
1354.0,0.0474056
1356.0,0.0505431
1358.0,0.0568059
1360.0,0.0501618
1362.0,0.0234695
1364.0,0.0219187
1366.0,0.109142
1368.0,0.342225
1370.0,0.281892
1372.0,0.15661
1374.0,0.110115
1376.0,0.0900234
1378.0,0.0860078
1380.0,0.0779959
1382.0,0.0687853
1384.0,0.0716593
1386.0,0.0906882
1388.0,0.0614108
1390.0,0.0435016
1392.0,0.0688537
1394.0,0.0750909
1396.0,0.051195
1398.0,0.0368131
1400.0,0.0361661
1402.0,0.0279671
1404.0,0.0297682
1406.0,0.0350521
1408.0,0.0283195
1410.0,0.0259738
1412.0,0.0216945
1414.0,0.0224776
1416.0,0.0234488
1418.0,0.0210286
1420.0,0.0198176
1422.0,0.0192841
1424.0,0.017215
1426.0,0.0164668
1428.0,0.0164943
1430.0,0.0160887
1432.0,0.0169847
1434.0,0.0173854
1436.0,0.0162472
1438.0,0.0146418
1440.0,0.0144769
1442.0,0.0152746
1444.0,0.0141692
1446.0,0.0141895
1448.0,0.0141885
1450.0,0.0130228
1452.0,0.0126261
1454.0,0.0126166
1456.0,0.0127135
1458.0,0.012614
1460.0,0.01256
1462.0,0.0123867
1464.0,0.0120194
1466.0,0.0124481
1468.0,0.012247
1470.0,0.0116854
1472.0,0.0120745
1474.0,0.0123292
1476.0,0.0122567
1478.0,0.0125637
1480.0,0.012221
1482.0,0.0117273
1484.0,0.0119183
1486.0,0.0121005
1488.0,0.0118471
1490.0,0.011624
1492.0,0.0116969
1494.0,0.0121783
1496.0,0.0122522
1498.0,0.0121279
1500.0,0.0124005
1502.0,0.0125517
1504.0,0.012833
1506.0,0.0128876
1508.0,0.01257
1510.0,0.0128161
1512.0,0.0133755
1514.0,0.0134579
1516.0,0.013364
1518.0,0.0136914
1520.0,0.0140276
1522.0,0.0141133
1524.0,0.0145233
1526.0,0.0147417
1528.0,0.0149445
1530.0,0.0153883
1532.0,0.0158234
1534.0,0.015929
1536.0,0.0159148
1538.0,0.0162391
1540.0,0.0165896
1542.0,0.0166937
1544.0,0.0167492
1546.0,0.0171612
1548.0,0.0178207
1550.0,0.0180966
1552.0,0.0181237
1554.0,0.0183263
1556.0,0.0184893
1558.0,0.0187248
1560.0,0.019385
1562.0,0.0197742
1564.0,0.019583
1566.0,0.0197412
1568.0,0.0201279
1570.0,0.0202426
1572.0,0.0203411
1574.0,0.0208525
1576.0,0.0214651
1578.0,0.0216651
1580.0,0.0216904
1582.0,0.0217083
1584.0,0.0221199
1586.0,0.0224824
1588.0,0.0225708
1590.0,0.0227353
1592.0,0.0229442
1594.0,0.0231273
1596.0,0.0235847
1598.0,0.0239285
1600.0,0.0240655
1602.0,0.0242329
1604.0,0.0246401
1606.0,0.0251936
1608.0,0.0254283
1610.0,0.025466
1612.0,0.0253995
1614.0,0.0254245
1616.0,0.0257461
1618.0,0.0258011
1620.0,0.0258048
1622.0,0.0262205
1624.0,0.026422
1626.0,0.0265753
1628.0,0.0268988
1630.0,0.0270261
1632.0,0.0273253
1634.0,0.0273271
1636.0,0.027287
1638.0,0.0275499
1640.0,0.0277024
1642.0,0.0278385
1644.0,0.0281954
1646.0,0.0282818
1648.0,0.0280655
1650.0,0.0282091
1652.0,0.0283525
1654.0,0.0283665
1656.0,0.0284547
1658.0,0.0288957
1660.0,0.0292097
1662.0,0.0291109
1664.0,0.0289794
1666.0,0.0290456
1668.0,0.0294196
1670.0,0.0296479
1672.0,0.0292348
1674.0,0.0291081
1676.0,0.0294394
1678.0,0.0292783
1680.0,0.0292915
1682.0,0.0290539
1684.0,0.0290436
1686.0,0.0292803
1688.0,0.0293203
1690.0,0.0294926
1692.0,0.0293436
1694.0,0.0293123
1696.0,0.029485
1698.0,0.0294443
1700.0,0.0293622
1702.0,0.029447
1704.0,0.0296386
1706.0,0.0294561
1708.0,0.0294339
1710.0,0.0297117
1712.0,0.0296835
1714.0,0.0293717
1716.0,0.0290698
1718.0,0.0289546
1720.0,0.0288912
1722.0,0.0288692
1724.0,0.0283402
1726.0,0.0278076
1728.0,0.0277955
1730.0,0.0273304
1732.0,0.0270159
1734.0,0.0273109
1736.0,0.0268834
1738.0,0.02626
1740.0,0.0261136
1742.0,0.0261798
1744.0,0.0260149
1746.0,0.0264631
1748.0,0.0261873
1750.0,0.0255821
1752.0,0.0252583
1754.0,0.0247929
1756.0,0.0247958
1758.0,0.0246933
1760.0,0.0242943
1762.0,0.0242882
1764.0,0.024445
1766.0,0.0246818
1768.0,0.0249693
1770.0,0.0240608
1772.0,0.0236139
1774.0,0.0239597
1776.0,0.0232766
1778.0,0.0227807
1780.0,0.0230381
1782.0,0.0233188
1784.0,0.0232817
1786.0,0.0244662
1788.0,0.0238363
1790.0,0.0238411
1792.0,0.0235789
1794.0,0.0240556
1796.0,0.0251719
1798.0,0.026017
1800.0,0.0265257
1802.0,0.0390022
1804.0,0.041006
1806.0,0.0353377
1808.0,0.0261512
1810.0,0.0386872
1812.0,0.0575682
1814.0,0.061741
1816.0,0.0659774
1818.0,0.0740719
1820.0,0.0691618
1822.0,0.0543347
1824.0,0.0701416
1826.0,0.100795
1828.0,0.0936004
1830.0,0.0517713
1832.0,0.127082
1834.0,0.238894
1836.0,0.0
1838.0,0.0
1840.0,0.0
1842.0,0.0
1844.0,0.0
1846.0,0.0
1848.0,0.0
1850.0,0.0
1852.0,0.292795
1854.0,0.0
1856.0,0.0
1858.0,0.0
1860.0,0.508342
1862.0,0.649888
1864.0,0.278554
1866.0,0.400157
1868.0,0.447239
1870.0,0.496319
1872.0,0.320768
1874.0,0.243853
1876.0,0.241229
1878.0,0.423985
1880.0,0.298905
1882.0,0.225033
1884.0,0.187317
1886.0,0.150141
1888.0,0.131099
1890.0,0.185159
1892.0,0.102736
1894.0,0.0768836
1896.0,0.17899
1898.0,0.418968
1900.0,1.0
1902.0,0.0
1904.0,0.0
1906.0,0.352983
1908.0,0.255979
1910.0,0.0476343
1912.0,0.0
1914.0,0.00448577
1916.0,0.0205624
1918.0,0.0235511
1920.0,0.0217004
1922.0,0.0582766
1924.0,0.0537081
1926.0,0.0216898
1928.0,0.0377292
1930.0,0.0597898
1932.0,0.0431498
1934.0,0.0310324
1936.0,0.0161221
1938.0,0.0235427
1940.0,0.0229912
1942.0,0.014139
1944.0,0.0174472
1946.0,0.0335359
1948.0,0.0357996
1950.0,0.0260813
1952.0,0.0276353
1954.0,0.0282438
1956.0,0.0233748
1958.0,0.021962
1960.0,0.0253715
1962.0,0.0200764
1964.0,0.0133032
1966.0,0.0126099
1968.0,0.0112077
1970.0,0.00647448
1972.0,0.0042882
1974.0,0.00630072
1976.0,0.00747637
1978.0,0.00664892
1980.0,0.00464391
1982.0,0.00367775
1984.0,0.0037873
1986.0,0.00488453
1988.0,0.00687355
1990.0,0.00705323
1992.0,0.00550325
1994.0,0.0054193
1996.0,0.0071411
1998.0,0.011237
2000.0,0.0130324
2002.0,0.0154303
2004.0,0.021974
2006.0,0.0181752
2008.0,0.0197937
2010.0,0.0207613
2012.0,0.0132912
2014.0,0.0114108
2016.0,0.013132
2018.0,0.0122523
2020.0,0.00939203
2022.0,0.00962544
2024.0,0.00894447
2026.0,0.00818423
2028.0,0.00642106
2030.0,0.00478267
2032.0,0.00554414
2034.0,0.00645235
2036.0,0.00619835
2038.0,0.00580737
2040.0,0.0063006
2042.0,0.00693093
2044.0,0.00686963
2046.0,0.0068047
2048.0,0.00756539
2050.0,0.009115
2052.0,0.0113341
2054.0,0.0124596
2056.0,0.0113685
2058.0,0.00920719
2060.0,0.0106249
2062.0,0.0111901
2064.0,0.0116669
2066.0,0.00915429
2068.0,0.00577298
2070.0,0.00565582
2072.0,0.00831284
2074.0,0.00911398
2076.0,0.00950474
2078.0,0.010976
2080.0,0.0115749
2082.0,0.0100552
2084.0,0.00937823
2086.0,0.00909121
2088.0,0.00967691
2090.0,0.0117403
2092.0,0.0128432
2094.0,0.0125512
2096.0,0.0129147
2098.0,0.0118534
2100.0,0.010772
2102.0,0.0108777
2104.0,0.0116475
2106.0,0.0122077
2108.0,0.0118891
2110.0,0.0111408
2112.0,0.0109125
2114.0,0.0118822
2116.0,0.0117474
2118.0,0.0122135
2120.0,0.0129487
2122.0,0.0128212
2124.0,0.0136479
2126.0,0.0140368
2128.0,0.014037
2130.0,0.0132649
2132.0,0.0129513
2134.0,0.0124566
2136.0,0.0120271
2138.0,0.0123476
2140.0,0.0125754
2142.0,0.0126558
2144.0,0.0134286
2146.0,0.0150514
2148.0,0.0151856
2150.0,0.0135478
2152.0,0.012683
2154.0,0.013275
2156.0,0.0149293
2158.0,0.0145955
2160.0,0.0137108
2162.0,0.0144027
2164.0,0.0138739
2166.0,0.0144292
2168.0,0.0158063
2170.0,0.0166426
2172.0,0.0149803
2174.0,0.0149777
2176.0,0.0161984
2178.0,0.0152811
2180.0,0.0141132
2182.0,0.013362
2184.0,0.01383
2186.0,0.0149815
2188.0,0.0152013
2190.0,0.0131765
2192.0,0.0129341
2194.0,0.0132693
2196.0,0.0134718
2198.0,0.0137604
2200.0,0.0146848
2202.0,0.0142224
2204.0,0.013644
2206.0,0.0136155
2208.0,0.0134597
2210.0,0.0140651
2212.0,0.0143763
2214.0,0.0133492
2216.0,0.0111662
2218.0,0.0106277
2220.0,0.0114367
2222.0,0.0123812
2224.0,0.0132355
2226.0,0.0143881
2228.0,0.0144826
2230.0,0.0147501
2232.0,0.0149144
2234.0,0.0144888
2236.0,0.0132893
2238.0,0.0106182
2240.0,0.0108019
2242.0,0.0136571
2244.0,0.0122985
2246.0,0.0123047
2248.0,0.0156407
2250.0,0.0156684
2252.0,0.015029
2254.0,0.0163863
2256.0,0.0150353
2258.0,0.0110148
2260.0,0.0110883
2262.0,0.0117332
2264.0,0.0103729
2266.0,0.0110747
2268.0,0.0129596
2270.0,0.0130607
2272.0,0.011596
2274.0,0.0121832
2276.0,0.0137624
2278.0,0.0143068
2280.0,0.0140161
2282.0,0.0134399
2284.0,0.0140555
2286.0,0.0146177
2288.0,0.0153943
2290.0,0.0147581
2292.0,0.0141732
2294.0,0.016025
2296.0,0.0145518
2298.0,0.0135743
2300.0,0.0154272
2302.0,0.014315
2304.0,0.0129834
2306.0,0.0131356
2308.0,0.0133034
2310.0,0.0139848
2312.0,0.0129892
2314.0,0.0114331
2316.0,0.0104592
2318.0,0.0106827
2320.0,0.0122433
2322.0,0.0124271
2324.0,0.0126488
2326.0,0.0129313
2328.0,0.0136357
2330.0,0.0121716
2332.0,0.011385
2334.0,0.0095097
2336.0,0.0067705
2338.0,0.00551688
2340.0,0.00980848
2342.0,0.0159185
2344.0,0.0138832
2346.0,0.0104283
2348.0,0.0133879
2350.0,0.0147396
2352.0,0.0130833
2354.0,0.0159713
2356.0,0.0170353
2358.0,0.0139705
2360.0,0.0131068
2362.0,0.0127074
2364.0,0.0116551
2366.0,0.0146606
2368.0,0.0104441
2370.0,0.00461802
2372.0,0.00762405
2374.0,0.00779693
2376.0,0.00685641
2378.0,0.00624066
2380.0,0.00854047
2382.0,0.0168251
2384.0,0.0167099
2386.0,0.00493816
2388.0,0.00941847
2390.0,0.0144047
2392.0,0.0160392
2394.0,0.0232968
2396.0,0.0223057
2398.0,0.0132155
2400.0,0.0151608
2402.0,0.0178197
2404.0,0.0162999
2406.0,0.0123062
2408.0,0.00934917
2410.0,0.0099901
2412.0,0.00537397
2414.0,0.00113487
2416.0,0.00676546
2418.0,0.016989
2420.0,0.0156773
2422.0,0.0177928
2424.0,0.0229792
2426.0,0.0221374
2428.0,0.0148783
2430.0,0.0153243
2432.0,0.0135706
2434.0,0.00214439
2436.0,0.0
2438.0,0.00719737
2440.0,0.0145405
2442.0,0.0109344
2444.0,0.00117874
2446.0,0.0
2448.0,0.0059279
2450.0,0.0295175
2452.0,0.0408709
2454.0,0.019487
2456.0,0.0058704
2458.0,0.0117209
2460.0,0.0113852
2462.0,0.0138906
2464.0,0.0150795
2466.0,0.0103121
2468.0,0.0145206
2470.0,0.0295468
2472.0,0.00980026
2474.0,0.00597011
2476.0,0.0712384
2478.0,0.0348422
2480.0,0.0
2482.0,0.0
2484.0,0.0774221
2486.0,0.102578
2488.0,0.112253
2490.0,0.096167
2492.0,0.101318
2494.0,0.28161
2496.0,0.321512
2498.0,0.248514
2500.0,0.117086