File: data/spectra_ascii/AsphaltTrockenVerschmutzung2___corthum00452.txt
Wavelength (nm),Reflectance
350.0,0.0791815
352.0,0.0803665
354.0,0.0801802
356.0,0.0808222
358.0,0.0812832
360.0,0.0822599
362.0,0.0823607
364.0,0.0829854
366.0,0.0830838
368.0,0.084058
370.0,0.0843766
372.0,0.0855656
374.0,0.0858954
376.0,0.0863018
378.0,0.0870723
380.0,0.0885945
382.0,0.0891558
384.0,0.0895421
386.0,0.0903987
388.0,0.0909599
390.0,0.0916953
392.0,0.0920304
394.0,0.0930729
396.0,0.0935223
398.0,0.0944988
400.0,0.0951002
402.0,0.0954736
404.0,0.0960714
406.0,0.0966925
408.0,0.0973428
410.0,0.0980315
412.0,0.0985497
414.0,0.0991852
416.0,0.0998291
418.0,0.100536
420.0,0.101063
422.0,0.101806
424.0,0.102459
426.0,0.103271
428.0,0.104018
430.0,0.104857
432.0,0.105553
434.0,0.106415
436.0,0.107161
438.0,0.107782
440.0,0.108549
442.0,0.109353
444.0,0.109921
446.0,0.110595
448.0,0.111229
450.0,0.111944
452.0,0.112501
454.0,0.113072
456.0,0.113736
458.0,0.114371
460.0,0.114862
462.0,0.115355
464.0,0.115964
466.0,0.116494
468.0,0.116987
470.0,0.117659
472.0,0.11812
474.0,0.118707
476.0,0.119096
478.0,0.119719
480.0,0.120381
482.0,0.121026
484.0,0.121504
486.0,0.122165
488.0,0.122921
490.0,0.123582
492.0,0.124224
494.0,0.124927
496.0,0.125602
498.0,0.126349
500.0,0.127085
502.0,0.127818
504.0,0.128505
506.0,0.129202
508.0,0.129912
510.0,0.130634
512.0,0.131295
514.0,0.132039
516.0,0.132814
518.0,0.133663
520.0,0.13444
522.0,0.135148
524.0,0.13594
526.0,0.136755
528.0,0.137609
530.0,0.138508
532.0,0.139394
534.0,0.140345
536.0,0.141306
538.0,0.14228
540.0,0.143352
542.0,0.144451
544.0,0.145452
546.0,0.146531
548.0,0.147645
550.0,0.148822
552.0,0.150082
554.0,0.151336
556.0,0.152626
558.0,0.153927
560.0,0.155223
562.0,0.156455
564.0,0.157618
566.0,0.158789
568.0,0.159983
570.0,0.16123
572.0,0.162379
574.0,0.163451
576.0,0.164599
578.0,0.165675
580.0,0.166665
582.0,0.167652
584.0,0.168657
586.0,0.169685
588.0,0.170674
590.0,0.171652
592.0,0.172425
594.0,0.173287
596.0,0.174083
598.0,0.174865
600.0,0.175628
602.0,0.176421
604.0,0.177099
606.0,0.177928
608.0,0.178567
610.0,0.1793
612.0,0.179998
614.0,0.180671
616.0,0.18133
618.0,0.181993
620.0,0.182666
622.0,0.18332
624.0,0.183891
626.0,0.184594
628.0,0.185225
630.0,0.185748
632.0,0.186329
634.0,0.186973
636.0,0.187603
638.0,0.188176
640.0,0.188759
642.0,0.189334
644.0,0.189929
646.0,0.190455
648.0,0.190962
650.0,0.191575
652.0,0.192063
654.0,0.192517
656.0,0.193099
658.0,0.19359
660.0,0.194074
662.0,0.194497
664.0,0.194973
666.0,0.195405
668.0,0.195835
670.0,0.196292
672.0,0.196724
674.0,0.197174
676.0,0.197508
678.0,0.197911
680.0,0.198219
682.0,0.198707
684.0,0.199101
686.0,0.199422
688.0,0.199906
690.0,0.200249
692.0,0.200587
694.0,0.200919
696.0,0.201203
698.0,0.201548
700.0,0.201856
702.0,0.202158
704.0,0.202484
706.0,0.202725
708.0,0.202991
710.0,0.20331
712.0,0.203623
714.0,0.203956
716.0,0.204295
718.0,0.204653
720.0,0.205001
722.0,0.205245
724.0,0.205572
726.0,0.205972
728.0,0.206273
730.0,0.206634
732.0,0.207025
734.0,0.20727
736.0,0.207619
738.0,0.208035
740.0,0.2084
742.0,0.208785
744.0,0.209119
746.0,0.20944
748.0,0.209903
750.0,0.210247
752.0,0.210694
754.0,0.211062
756.0,0.211501
758.0,0.211915
760.0,0.212295
762.0,0.212846
764.0,0.213375
766.0,0.213671
768.0,0.213983
770.0,0.214194
772.0,0.21452
774.0,0.214916
776.0,0.215323
778.0,0.215665
780.0,0.216054
782.0,0.216405
784.0,0.216756
786.0,0.217098
788.0,0.217487
790.0,0.217799
792.0,0.21822
794.0,0.218498
796.0,0.218868
798.0,0.219186
800.0,0.219518
802.0,0.219871
804.0,0.220141
806.0,0.220533
808.0,0.220837
810.0,0.221174
812.0,0.221453
814.0,0.221844
816.0,0.222148
818.0,0.222377
820.0,0.222667
822.0,0.222946
824.0,0.223258
826.0,0.223413
828.0,0.223744
830.0,0.223972
832.0,0.224284
834.0,0.224595
836.0,0.224765
838.0,0.224986
840.0,0.225295
842.0,0.225576
844.0,0.225787
846.0,0.226039
848.0,0.226252
850.0,0.226366
852.0,0.226694
854.0,0.22706
856.0,0.227264
858.0,0.227376
860.0,0.227759
862.0,0.227837
864.0,0.227947
866.0,0.228288
868.0,0.228514
870.0,0.228559
872.0,0.228894
874.0,0.22903
876.0,0.229142
878.0,0.229435
880.0,0.22955
882.0,0.229834
884.0,0.230049
886.0,0.230429
888.0,0.230824
890.0,0.230995
892.0,0.230977
894.0,0.231388
896.0,0.231418
898.0,0.231668
900.0,0.231731
902.0,0.23212
904.0,0.232277
906.0,0.232251
908.0,0.232615
910.0,0.232912
912.0,0.232951
914.0,0.233318
916.0,0.233597
918.0,0.233563
920.0,0.233592
922.0,0.233849
924.0,0.234248
926.0,0.234358
928.0,0.234089
930.0,0.233933
932.0,0.23287
934.0,0.232898
936.0,0.232106
938.0,0.2328
940.0,0.233299
942.0,0.233657
944.0,0.232992
946.0,0.234707
948.0,0.233901
950.0,0.23438
952.0,0.235374
954.0,0.234693
956.0,0.235257
958.0,0.23479
960.0,0.236018
962.0,0.236158
964.0,0.236449
966.0,0.237148
968.0,0.237733
970.0,0.237528
972.0,0.237768
974.0,0.237815
976.0,0.237595
978.0,0.237128
980.0,0.237745
982.0,0.238173
984.0,0.238399
986.0,0.239283
988.0,0.238226
990.0,0.238442
992.0,0.238999
994.0,0.239573
996.0,0.239248
998.0,0.238561
1000.0,0.239106
1002.0,0.244066
1004.0,0.244228
1006.0,0.244172
1008.0,0.244123
1010.0,0.244041
1012.0,0.24421
1014.0,0.244593
1016.0,0.244406
1018.0,0.244628
1020.0,0.244939
1022.0,0.245057
1024.0,0.244829
1026.0,0.244809
1028.0,0.245415
1030.0,0.245783
1032.0,0.245756
1034.0,0.245755
1036.0,0.245469
1038.0,0.245649
1040.0,0.24597
1042.0,0.245933
1044.0,0.245905
1046.0,0.245583
1048.0,0.245912
1050.0,0.246264
1052.0,0.246158
1054.0,0.246363
1056.0,0.246592
1058.0,0.246629
1060.0,0.246729
1062.0,0.24688
1064.0,0.246926
1066.0,0.246628
1068.0,0.246535
1070.0,0.246372
1072.0,0.246643
1074.0,0.246732
1076.0,0.246934
1078.0,0.24703
1080.0,0.247253
1082.0,0.247384
1084.0,0.247446
1086.0,0.247589
1088.0,0.247878
1090.0,0.248143
1092.0,0.248137
1094.0,0.247985
1096.0,0.248122
1098.0,0.248119
1100.0,0.248108
1102.0,0.248201
1104.0,0.248381
1106.0,0.248895
1108.0,0.248909
1110.0,0.249062
1112.0,0.249367
1114.0,0.249311
1116.0,0.248607
1118.0,0.248835
1120.0,0.249205
1122.0,0.24965
1124.0,0.249724
1126.0,0.249327
1128.0,0.248472
1130.0,0.248484
1132.0,0.248619
1134.0,0.248242
1136.0,0.248199
1138.0,0.249076
1140.0,0.249667
1142.0,0.249842
1144.0,0.25037
1146.0,0.250778
1148.0,0.250707
1150.0,0.249804
1152.0,0.249792
1154.0,0.250186
1156.0,0.250596
1158.0,0.251076
1160.0,0.251036
1162.0,0.250601
1164.0,0.250802
1166.0,0.251309
1168.0,0.251412
1170.0,0.251343
1172.0,0.251637
1174.0,0.25198
1176.0,0.251927
1178.0,0.252013
1180.0,0.252223
1182.0,0.252345
1184.0,0.252515
1186.0,0.252797
1188.0,0.252759
1190.0,0.252988
1192.0,0.253337
1194.0,0.253355
1196.0,0.253297
1198.0,0.253461
1200.0,0.253223
1202.0,0.252917
1204.0,0.253337
1206.0,0.253652
1208.0,0.253512
1210.0,0.253568
1212.0,0.253685
1214.0,0.253936
1216.0,0.254103
1218.0,0.254
1220.0,0.253733
1222.0,0.2537
1224.0,0.253677
1226.0,0.253753
1228.0,0.253891
1230.0,0.253977
1232.0,0.253981
1234.0,0.25379
1236.0,0.253702
1238.0,0.253614
1240.0,0.253375
1242.0,0.253459
1244.0,0.253898
1246.0,0.253928
1248.0,0.253912
1250.0,0.254184
1252.0,0.254524
1254.0,0.254604
1256.0,0.254597
1258.0,0.254498
1260.0,0.254513
1262.0,0.254405
1264.0,0.254128
1266.0,0.253869
1268.0,0.253842
1270.0,0.253764
1272.0,0.25388
1274.0,0.253917
1276.0,0.253966
1278.0,0.253968
1280.0,0.254143
1282.0,0.254129
1284.0,0.254278
1286.0,0.254359
1288.0,0.254655
1290.0,0.254775
1292.0,0.254424
1294.0,0.254547
1296.0,0.254812
1298.0,0.25461
1300.0,0.254584
1302.0,0.254681
1304.0,0.254879
1306.0,0.254875
1308.0,0.254746
1310.0,0.254862
1312.0,0.255125
1314.0,0.255147
1316.0,0.254998
1318.0,0.255014
1320.0,0.255126
1322.0,0.255171
1324.0,0.255365
1326.0,0.255529
1328.0,0.255698
1330.0,0.255655
1332.0,0.255437
1334.0,0.255841
1336.0,0.256218
1338.0,0.256477
1340.0,0.256481
1342.0,0.256708
1344.0,0.257471
1346.0,0.258275
1348.0,0.258001
1350.0,0.255915
1352.0,0.255515
1354.0,0.261503
1356.0,0.263662
1358.0,0.259062
1360.0,0.254038
1362.0,0.306115
1364.0,0.615006
1366.0,0.421535
1368.0,0.245205
1370.0,0.250513
1372.0,0.346372
1374.0,0.469281
1376.0,0.348938
1378.0,0.298549
1380.0,0.334208
1382.0,0.343249
1384.0,0.285009
1386.0,0.2847
1388.0,0.254863
1390.0,0.249116
1392.0,0.224595
1394.0,0.223944
1396.0,0.251659
1398.0,0.25951
1400.0,0.261208
1402.0,0.266294
1404.0,0.260235
1406.0,0.25251
1408.0,0.257069
1410.0,0.258057
1412.0,0.251869
1414.0,0.250199
1416.0,0.252784
1418.0,0.255002
1420.0,0.25485
1422.0,0.254796
1424.0,0.255882
1426.0,0.25515
1428.0,0.255029
1430.0,0.257711
1432.0,0.259306
1434.0,0.259173
1436.0,0.258951
1438.0,0.258398
1440.0,0.258303
1442.0,0.257894
1444.0,0.257351
1446.0,0.258127
1448.0,0.259059
1450.0,0.2588
1452.0,0.259052
1454.0,0.260127
1456.0,0.260246
1458.0,0.260327
1460.0,0.260625
1462.0,0.26074
1464.0,0.261096
1466.0,0.260713
1468.0,0.259495
1470.0,0.259204
1472.0,0.26013
1474.0,0.260942
1476.0,0.261529
1478.0,0.26225
1480.0,0.262017
1482.0,0.262036
1484.0,0.262976
1486.0,0.263296
1488.0,0.263591
1490.0,0.263776
1492.0,0.264185
1494.0,0.264235
1496.0,0.264345
1498.0,0.26493
1500.0,0.264857
1502.0,0.264325
1504.0,0.263968
1506.0,0.264006
1508.0,0.264312
1510.0,0.264552
1512.0,0.264561
1514.0,0.26432
1516.0,0.264498
1518.0,0.264738
1520.0,0.264806
1522.0,0.264896
1524.0,0.26467
1526.0,0.264822
1528.0,0.26507
1530.0,0.265116
1532.0,0.264881
1534.0,0.26471
1536.0,0.264527
1538.0,0.264444
1540.0,0.26425
1542.0,0.264419
1544.0,0.264266
1546.0,0.26427
1548.0,0.264674
1550.0,0.264804
1552.0,0.264562
1554.0,0.264336
1556.0,0.264284
1558.0,0.264522
1560.0,0.264286
1562.0,0.263942
1564.0,0.263906
1566.0,0.264125
1568.0,0.264175
1570.0,0.264047
1572.0,0.263855
1574.0,0.263895
1576.0,0.263743
1578.0,0.26398
1580.0,0.264012
1582.0,0.263584
1584.0,0.263668
1586.0,0.264024
1588.0,0.263762
1590.0,0.263599
1592.0,0.263897
1594.0,0.263677
1596.0,0.263352
1598.0,0.263308
1600.0,0.263153
1602.0,0.262429
1604.0,0.262025
1606.0,0.262362
1608.0,0.262426
1610.0,0.262452
1612.0,0.262344
1614.0,0.261732
1616.0,0.261366
1618.0,0.261518
1620.0,0.261368
1622.0,0.26107
1624.0,0.261215
1626.0,0.261417
1628.0,0.261648
1630.0,0.262031
1632.0,0.261885
1634.0,0.261471
1636.0,0.261137
1638.0,0.261076
1640.0,0.260739
1642.0,0.260225
1644.0,0.260184
1646.0,0.260436
1648.0,0.260707
1650.0,0.260507
1652.0,0.260278
1654.0,0.260307
1656.0,0.260377
1658.0,0.261061
1660.0,0.261221
1662.0,0.261127
1664.0,0.26123
1666.0,0.260675
1668.0,0.260951
1670.0,0.261326
1672.0,0.260971
1674.0,0.260559
1676.0,0.260501
1678.0,0.2613
1680.0,0.261635
1682.0,0.261116
1684.0,0.261207
1686.0,0.261186
1688.0,0.260995
1690.0,0.261105
1692.0,0.260909
1694.0,0.260762
1696.0,0.261149
1698.0,0.261637
1700.0,0.261652
1702.0,0.261281
1704.0,0.261717
1706.0,0.261771
1708.0,0.261704
1710.0,0.26151
1712.0,0.260935
1714.0,0.261359
1716.0,0.261845
1718.0,0.261016
1720.0,0.261133
1722.0,0.261472
1724.0,0.26142
1726.0,0.261024
1728.0,0.260859
1730.0,0.260974
1732.0,0.26057
1734.0,0.260386
1736.0,0.261042
1738.0,0.261333
1740.0,0.261127
1742.0,0.261858
1744.0,0.26224
1746.0,0.262135
1748.0,0.26203
1750.0,0.261757
1752.0,0.261584
1754.0,0.260986
1756.0,0.259461
1758.0,0.259798
1760.0,0.261066
1762.0,0.261625
1764.0,0.261685
1766.0,0.26058
1768.0,0.260531
1770.0,0.260581
1772.0,0.26046
1774.0,0.260711
1776.0,0.260361
1778.0,0.260763
1780.0,0.260687
1782.0,0.259934
1784.0,0.259852
1786.0,0.259438
1788.0,0.25981
1790.0,0.259861
1792.0,0.258724
1794.0,0.259102
1796.0,0.261365
1798.0,0.258511
1800.0,0.25477
1802.0,0.257253
1804.0,0.260443
1806.0,0.26968
1808.0,0.274842
1810.0,0.266973
1812.0,0.262778
1814.0,0.290512
1816.0,0.306571
1818.0,0.299839
1820.0,0.248469
1822.0,0.219073
1824.0,0.211984
1826.0,0.227577
1828.0,0.279914
1830.0,0.342118
1832.0,0.367983
1834.0,0.0
1836.0,0.0
1838.0,0.0
1840.0,0.25651
1842.0,0.283767
1844.0,0.188877
1846.0,0.0933155
1848.0,0.207587
1850.0,0.524304
1852.0,0.140266
1854.0,0.2494
1856.0,0.664298
1858.0,0.493053
1860.0,0.40895
1862.0,1.0
1864.0,0.833466
1866.0,0.455643
1868.0,0.77656
1870.0,0.480164
1872.0,0.781872
1874.0,0.0
1876.0,0.0
1878.0,1.0
1880.0,0.860065
1882.0,0.681298
1884.0,0.29291
1886.0,0.297066
1888.0,0.356071
1890.0,0.323894
1892.0,0.245874
1894.0,0.254776
1896.0,0.307278
1898.0,0.286454
1900.0,0.256548
1902.0,0.283131
1904.0,0.401852
1906.0,0.274549
1908.0,0.21231
1910.0,0.665092
1912.0,1.0
1914.0,0.455073
1916.0,0.80901
1918.0,0.612497
1920.0,0.341428
1922.0,0.263746
1924.0,0.25705
1926.0,0.259956
1928.0,0.222255
1930.0,0.232577
1932.0,0.255184
1934.0,0.252502
1936.0,0.245966
1938.0,0.26294
1940.0,0.26221
1942.0,0.258744
1944.0,0.258329
1946.0,0.254353
1948.0,0.240004
1950.0,0.232856
1952.0,0.244601
1954.0,0.253445
1956.0,0.262362
1958.0,0.25987
1960.0,0.25973
1962.0,0.261454
1964.0,0.260855
1966.0,0.256635
1968.0,0.255856
1970.0,0.25541
1972.0,0.254018
1974.0,0.256471
1976.0,0.258825
1978.0,0.258495
1980.0,0.257932
1982.0,0.260004
1984.0,0.2598
1986.0,0.257178
1988.0,0.255637
1990.0,0.254447
1992.0,0.252749
1994.0,0.252024
1996.0,0.254259
1998.0,0.260997
2000.0,0.266574
2002.0,0.267266
2004.0,0.264378
2006.0,0.25942
2008.0,0.25294
2010.0,0.252763
2012.0,0.255577
2014.0,0.261387
2016.0,0.264883
2018.0,0.259965
2020.0,0.258866
2022.0,0.257117
2024.0,0.259042
2026.0,0.261247
2028.0,0.260821
2030.0,0.258791
2032.0,0.259548
2034.0,0.259963
2036.0,0.260468
2038.0,0.259388
2040.0,0.25877
2042.0,0.261297
2044.0,0.263957
2046.0,0.2649
2048.0,0.265485
2050.0,0.263353
2052.0,0.260615
2054.0,0.261198
2056.0,0.266372
2058.0,0.267533
2060.0,0.265149
2062.0,0.265656
2064.0,0.265894
2066.0,0.266198
2068.0,0.268427
2070.0,0.26861
2072.0,0.26675
2074.0,0.266454
2076.0,0.265978
2078.0,0.265831
2080.0,0.266796
2082.0,0.264309
2084.0,0.26137
2086.0,0.264156
2088.0,0.268493
2090.0,0.269572
2092.0,0.268557
2094.0,0.26804
2096.0,0.266963
2098.0,0.265077
2100.0,0.264172
2102.0,0.265506
2104.0,0.265538
2106.0,0.264935
2108.0,0.264477
2110.0,0.266344
2112.0,0.26829
2114.0,0.270432
2116.0,0.269691
2118.0,0.26746
2120.0,0.266726
2122.0,0.266434
2124.0,0.26737
2126.0,0.266211
2128.0,0.264841
2130.0,0.264844
2132.0,0.265762
2134.0,0.266216
2136.0,0.266118
2138.0,0.265641
2140.0,0.264305
2142.0,0.263769
2144.0,0.26597
2146.0,0.268047
2148.0,0.268323
2150.0,0.266531
2152.0,0.264366
2154.0,0.264663
2156.0,0.264698
2158.0,0.263608
2160.0,0.263993
2162.0,0.264814
2164.0,0.264484
2166.0,0.263046
2168.0,0.262271
2170.0,0.262601
2172.0,0.260202
2174.0,0.257728
2176.0,0.25737
2178.0,0.258445
2180.0,0.260704
2182.0,0.261084
2184.0,0.258554
2186.0,0.256306
2188.0,0.25505
2190.0,0.254802
2192.0,0.255602
2194.0,0.255834
2196.0,0.253586
2198.0,0.253911
2200.0,0.255886
2202.0,0.255027
2204.0,0.253088
2206.0,0.252163
2208.0,0.253033
2210.0,0.253824
2212.0,0.252406
2214.0,0.250703
2216.0,0.251046
2218.0,0.251474
2220.0,0.252327
2222.0,0.252476
2224.0,0.249992
2226.0,0.249125
2228.0,0.248879
2230.0,0.249735
2232.0,0.249429
2234.0,0.248935
2236.0,0.24903
2238.0,0.249214
2240.0,0.249922
2242.0,0.251498
2244.0,0.252516
2246.0,0.252665
2248.0,0.251348
2250.0,0.250225
2252.0,0.249724
2254.0,0.246404
2256.0,0.246367
2258.0,0.250106
2260.0,0.252687
2262.0,0.253034
2264.0,0.253394
2266.0,0.251566
2268.0,0.253137
2270.0,0.254218
2272.0,0.249948
2274.0,0.250104
2276.0,0.250117
2278.0,0.249778
2280.0,0.249742
2282.0,0.25208
2284.0,0.252371
2286.0,0.251136
2288.0,0.250171
2290.0,0.25113
2292.0,0.25063
2294.0,0.247668
2296.0,0.244318
2298.0,0.243955
2300.0,0.244142
2302.0,0.244568
2304.0,0.241606
2306.0,0.242932
2308.0,0.248788
2310.0,0.250565
2312.0,0.246851
2314.0,0.245762
2316.0,0.246139
2318.0,0.250203
2320.0,0.254242
2322.0,0.251666
2324.0,0.248618
2326.0,0.249458
2328.0,0.252863
2330.0,0.249218
2332.0,0.243727
2334.0,0.245454
2336.0,0.248989
2338.0,0.252032
2340.0,0.250343
2342.0,0.253251
2344.0,0.257796
2346.0,0.25383
2348.0,0.250114
2350.0,0.243888
2352.0,0.246975
2354.0,0.253314
2356.0,0.249161
2358.0,0.248211
2360.0,0.249296
2362.0,0.249316
2364.0,0.251629
2366.0,0.24544
2368.0,0.245113
2370.0,0.248423
2372.0,0.245817
2374.0,0.243327
2376.0,0.239659
2378.0,0.242175
2380.0,0.246296
2382.0,0.243784
2384.0,0.249694
2386.0,0.258074
2388.0,0.249709
2390.0,0.230174
2392.0,0.22382
2394.0,0.236494
2396.0,0.250505
2398.0,0.255417
2400.0,0.249597
2402.0,0.253644
2404.0,0.253826
2406.0,0.251095
2408.0,0.262724
2410.0,0.250382
2412.0,0.230382
2414.0,0.230432
2416.0,0.240179
2418.0,0.24927
2420.0,0.257818
2422.0,0.260318
2424.0,0.259619
2426.0,0.259925
2428.0,0.256559
2430.0,0.256333
2432.0,0.259989
2434.0,0.250932
2436.0,0.233344
2438.0,0.222357
2440.0,0.238568
2442.0,0.250029
2444.0,0.260273
2446.0,0.326634
2448.0,0.325171
2450.0,0.275685
2452.0,0.23295
2454.0,0.210247
2456.0,0.242701
2458.0,0.265204
2460.0,0.267592
2462.0,0.255336
2464.0,0.226143
2466.0,0.251926
2468.0,0.268303
2470.0,0.243376
2472.0,0.277152
2474.0,0.293143
2476.0,0.260858
2478.0,0.282669
2480.0,0.248681
2482.0,0.219943
2484.0,0.268846
2486.0,0.342627
2488.0,0.353174
2490.0,0.348491
2492.0,0.540564
2494.0,0.479278
2496.0,0.506433
2498.0,0.446089
2500.0,0.238978