File: data/spectra_ascii/AsphaltTrockenVerschmutzung2___corthum00451.txt
Wavelength (nm),Reflectance
350.0,0.080927
352.0,0.0817451
354.0,0.0822234
356.0,0.0819512
358.0,0.0830497
360.0,0.0835314
362.0,0.0839361
364.0,0.0843646
366.0,0.084946
368.0,0.085607
370.0,0.0862386
372.0,0.0869744
374.0,0.0874533
376.0,0.0883992
378.0,0.0889482
380.0,0.0899955
382.0,0.090892
384.0,0.0911839
386.0,0.0920546
388.0,0.0930414
390.0,0.0933419
392.0,0.0937877
394.0,0.0948777
396.0,0.0956636
398.0,0.0965738
400.0,0.0973267
402.0,0.0976815
404.0,0.0982034
406.0,0.0988945
408.0,0.0996524
410.0,0.100218
412.0,0.100845
414.0,0.101526
416.0,0.10212
418.0,0.102825
420.0,0.103486
422.0,0.10415
424.0,0.104991
426.0,0.105769
428.0,0.106489
430.0,0.107333
432.0,0.108153
434.0,0.108973
436.0,0.109714
438.0,0.110424
440.0,0.111216
442.0,0.112002
444.0,0.112606
446.0,0.113319
448.0,0.114033
450.0,0.114654
452.0,0.115241
454.0,0.115908
456.0,0.11649
458.0,0.117143
460.0,0.117676
462.0,0.118243
464.0,0.118733
466.0,0.119276
468.0,0.119842
470.0,0.120469
472.0,0.120987
474.0,0.121511
476.0,0.122025
478.0,0.122621
480.0,0.123204
482.0,0.123884
484.0,0.124439
486.0,0.125091
488.0,0.125841
490.0,0.126413
492.0,0.12719
494.0,0.127921
496.0,0.128571
498.0,0.129392
500.0,0.130065
502.0,0.130839
504.0,0.131558
506.0,0.132287
508.0,0.132951
510.0,0.133764
512.0,0.134421
514.0,0.135247
516.0,0.135969
518.0,0.136806
520.0,0.137638
522.0,0.138354
524.0,0.139174
526.0,0.139957
528.0,0.140874
530.0,0.141782
532.0,0.142707
534.0,0.143668
536.0,0.144635
538.0,0.145623
540.0,0.146712
542.0,0.147849
544.0,0.148881
546.0,0.149994
548.0,0.151175
550.0,0.152371
552.0,0.153636
554.0,0.154932
556.0,0.156223
558.0,0.157531
560.0,0.158818
562.0,0.160142
564.0,0.161279
566.0,0.16254
568.0,0.163817
570.0,0.165012
572.0,0.166194
574.0,0.167311
576.0,0.168419
578.0,0.169549
580.0,0.170564
582.0,0.17161
584.0,0.172693
586.0,0.173639
588.0,0.174597
590.0,0.175597
592.0,0.176402
594.0,0.177258
596.0,0.178115
598.0,0.178903
600.0,0.17965
602.0,0.180406
604.0,0.181173
606.0,0.181988
608.0,0.182586
610.0,0.183334
612.0,0.183993
614.0,0.184748
616.0,0.185385
618.0,0.186038
620.0,0.186722
622.0,0.187365
624.0,0.187926
626.0,0.188594
628.0,0.189299
630.0,0.189888
632.0,0.190469
634.0,0.19111
636.0,0.191684
638.0,0.192257
640.0,0.192825
642.0,0.193431
644.0,0.194035
646.0,0.194605
648.0,0.195065
650.0,0.195747
652.0,0.196208
654.0,0.196708
656.0,0.197266
658.0,0.197721
660.0,0.198227
662.0,0.198652
664.0,0.199123
666.0,0.1996
668.0,0.200077
670.0,0.200502
672.0,0.200904
674.0,0.201405
676.0,0.201785
678.0,0.202193
680.0,0.202521
682.0,0.202959
684.0,0.203428
686.0,0.203789
688.0,0.204315
690.0,0.204623
692.0,0.204936
694.0,0.205332
696.0,0.20562
698.0,0.205919
700.0,0.20632
702.0,0.206624
704.0,0.206992
706.0,0.207228
708.0,0.207533
710.0,0.207857
712.0,0.20817
714.0,0.208515
716.0,0.208917
718.0,0.20942
720.0,0.209688
722.0,0.209981
724.0,0.210285
726.0,0.210709
728.0,0.211084
730.0,0.211363
732.0,0.211804
734.0,0.212048
736.0,0.212447
738.0,0.21282
740.0,0.213239
742.0,0.213643
744.0,0.21399
746.0,0.214322
748.0,0.214786
750.0,0.215126
752.0,0.215619
754.0,0.216055
756.0,0.216481
758.0,0.217018
760.0,0.217363
762.0,0.21818
764.0,0.218496
766.0,0.218829
768.0,0.219121
770.0,0.219282
772.0,0.219668
774.0,0.220046
776.0,0.220461
778.0,0.220808
780.0,0.221182
782.0,0.221577
784.0,0.221982
786.0,0.222308
788.0,0.222683
790.0,0.223055
792.0,0.223464
794.0,0.223743
796.0,0.224105
798.0,0.224521
800.0,0.224815
802.0,0.225162
804.0,0.225419
806.0,0.225771
808.0,0.226147
810.0,0.226501
812.0,0.226916
814.0,0.227197
816.0,0.227538
818.0,0.227852
820.0,0.228146
822.0,0.228407
824.0,0.228746
826.0,0.229
828.0,0.229291
830.0,0.229493
832.0,0.229741
834.0,0.230011
836.0,0.230226
838.0,0.230545
840.0,0.230742
842.0,0.230973
844.0,0.231218
846.0,0.231566
848.0,0.231792
850.0,0.231903
852.0,0.232333
854.0,0.232711
856.0,0.232762
858.0,0.2329
860.0,0.233234
862.0,0.233457
864.0,0.233658
866.0,0.233912
868.0,0.234005
870.0,0.234129
872.0,0.2345
874.0,0.234623
876.0,0.234913
878.0,0.235087
880.0,0.235365
882.0,0.23561
884.0,0.235647
886.0,0.236131
888.0,0.236341
890.0,0.236508
892.0,0.236805
894.0,0.237041
896.0,0.237163
898.0,0.237408
900.0,0.237448
902.0,0.237926
904.0,0.238315
906.0,0.237989
908.0,0.238274
910.0,0.23889
912.0,0.239003
914.0,0.239083
916.0,0.239185
918.0,0.239502
920.0,0.239489
922.0,0.239753
924.0,0.240321
926.0,0.240192
928.0,0.240013
930.0,0.239724
932.0,0.238972
934.0,0.238355
936.0,0.238109
938.0,0.238806
940.0,0.240103
942.0,0.239707
944.0,0.239246
946.0,0.241072
948.0,0.239927
950.0,0.240849
952.0,0.241542
954.0,0.241401
956.0,0.241506
958.0,0.241057
960.0,0.24206
962.0,0.241951
964.0,0.243035
966.0,0.24303
968.0,0.243638
970.0,0.243333
972.0,0.243901
974.0,0.243028
976.0,0.243837
978.0,0.243348
980.0,0.243795
982.0,0.244001
984.0,0.244248
986.0,0.24457
988.0,0.24467
990.0,0.245004
992.0,0.245026
994.0,0.244634
996.0,0.245247
998.0,0.244893
1000.0,0.244341
1002.0,0.249457
1004.0,0.249062
1006.0,0.24945
1008.0,0.249794
1010.0,0.250561
1012.0,0.250344
1014.0,0.250264
1016.0,0.250191
1018.0,0.2507
1020.0,0.251057
1022.0,0.251057
1024.0,0.250922
1026.0,0.250787
1028.0,0.250854
1030.0,0.251049
1032.0,0.251192
1034.0,0.251253
1036.0,0.250771
1038.0,0.251187
1040.0,0.251944
1042.0,0.252111
1044.0,0.251806
1046.0,0.251448
1048.0,0.251382
1050.0,0.251815
1052.0,0.251848
1054.0,0.252349
1056.0,0.252762
1058.0,0.252806
1060.0,0.252631
1062.0,0.252536
1064.0,0.25273
1066.0,0.252776
1068.0,0.252189
1070.0,0.251726
1072.0,0.252134
1074.0,0.252694
1076.0,0.252704
1078.0,0.252718
1080.0,0.252921
1082.0,0.253112
1084.0,0.253112
1086.0,0.252739
1088.0,0.252848
1090.0,0.253384
1092.0,0.253373
1094.0,0.253062
1096.0,0.253259
1098.0,0.253593
1100.0,0.253811
1102.0,0.253661
1104.0,0.25373
1106.0,0.25439
1108.0,0.254455
1110.0,0.254719
1112.0,0.254876
1114.0,0.254737
1116.0,0.254734
1118.0,0.255374
1120.0,0.255399
1122.0,0.255731
1124.0,0.255749
1126.0,0.255922
1128.0,0.255498
1130.0,0.254809
1132.0,0.254528
1134.0,0.254553
1136.0,0.255093
1138.0,0.25585
1140.0,0.255998
1142.0,0.255692
1144.0,0.255447
1146.0,0.255458
1148.0,0.255775
1150.0,0.255999
1152.0,0.255789
1154.0,0.255914
1156.0,0.256175
1158.0,0.256483
1160.0,0.25646
1162.0,0.256466
1164.0,0.2562
1166.0,0.256439
1168.0,0.256724
1170.0,0.25688
1172.0,0.257176
1174.0,0.257474
1176.0,0.25743
1178.0,0.257315
1180.0,0.257383
1182.0,0.257559
1184.0,0.257687
1186.0,0.257974
1188.0,0.258234
1190.0,0.258679
1192.0,0.258932
1194.0,0.258883
1196.0,0.258787
1198.0,0.258973
1200.0,0.258781
1202.0,0.258488
1204.0,0.258844
1206.0,0.259075
1208.0,0.258966
1210.0,0.258966
1212.0,0.258974
1214.0,0.259106
1216.0,0.259247
1218.0,0.259133
1220.0,0.25919
1222.0,0.259215
1224.0,0.259143
1226.0,0.259225
1228.0,0.259567
1230.0,0.259573
1232.0,0.259313
1234.0,0.258955
1236.0,0.258803
1238.0,0.258716
1240.0,0.258643
1242.0,0.258563
1244.0,0.25873
1246.0,0.259054
1248.0,0.259138
1250.0,0.259222
1252.0,0.259349
1254.0,0.259552
1256.0,0.259619
1258.0,0.259642
1260.0,0.259545
1262.0,0.259594
1264.0,0.259522
1266.0,0.259192
1268.0,0.259074
1270.0,0.259128
1272.0,0.259142
1274.0,0.259052
1276.0,0.259073
1278.0,0.259194
1280.0,0.259339
1282.0,0.259386
1284.0,0.259392
1286.0,0.259388
1288.0,0.259552
1290.0,0.259663
1292.0,0.259389
1294.0,0.259298
1296.0,0.259463
1298.0,0.259501
1300.0,0.259474
1302.0,0.259503
1304.0,0.259536
1306.0,0.25959
1308.0,0.259567
1310.0,0.259836
1312.0,0.260028
1314.0,0.260027
1316.0,0.259927
1318.0,0.259835
1320.0,0.259665
1322.0,0.259877
1324.0,0.260371
1326.0,0.260528
1328.0,0.260867
1330.0,0.260827
1332.0,0.260425
1334.0,0.26085
1336.0,0.261488
1338.0,0.261962
1340.0,0.262178
1342.0,0.262628
1344.0,0.263183
1346.0,0.263337
1348.0,0.263741
1350.0,0.264173
1352.0,0.265028
1354.0,0.271675
1356.0,0.279865
1358.0,0.289743
1360.0,0.313265
1362.0,0.427365
1364.0,0.6936
1366.0,0.384219
1368.0,0.278938
1370.0,0.378343
1372.0,0.599397
1374.0,0.689379
1376.0,0.442731
1378.0,0.317476
1380.0,0.319393
1382.0,0.372482
1384.0,0.400652
1386.0,0.397396
1388.0,0.315621
1390.0,0.307945
1392.0,0.300988
1394.0,0.301887
1396.0,0.301574
1398.0,0.276923
1400.0,0.267095
1402.0,0.27778
1404.0,0.280945
1406.0,0.268835
1408.0,0.266853
1410.0,0.270218
1412.0,0.264685
1414.0,0.261389
1416.0,0.259814
1418.0,0.260132
1420.0,0.26327
1422.0,0.265951
1424.0,0.265823
1426.0,0.263653
1428.0,0.263346
1430.0,0.264732
1432.0,0.265369
1434.0,0.265222
1436.0,0.264571
1438.0,0.264729
1440.0,0.264998
1442.0,0.265153
1444.0,0.264894
1446.0,0.265035
1448.0,0.265282
1450.0,0.265035
1452.0,0.264527
1454.0,0.264648
1456.0,0.264874
1458.0,0.265251
1460.0,0.265917
1462.0,0.266421
1464.0,0.266705
1466.0,0.266773
1468.0,0.265995
1470.0,0.265175
1472.0,0.26635
1474.0,0.266962
1476.0,0.267255
1478.0,0.268461
1480.0,0.267593
1482.0,0.266845
1484.0,0.267211
1486.0,0.267548
1488.0,0.268378
1490.0,0.268147
1492.0,0.268
1494.0,0.268181
1496.0,0.267999
1498.0,0.268394
1500.0,0.268652
1502.0,0.2683
1504.0,0.268074
1506.0,0.268179
1508.0,0.26821
1510.0,0.26828
1512.0,0.268079
1514.0,0.268009
1516.0,0.268255
1518.0,0.268148
1520.0,0.26821
1522.0,0.268177
1524.0,0.268119
1526.0,0.268484
1528.0,0.268669
1530.0,0.268544
1532.0,0.268386
1534.0,0.268376
1536.0,0.268168
1538.0,0.268189
1540.0,0.268309
1542.0,0.26849
1544.0,0.268485
1546.0,0.268173
1548.0,0.268304
1550.0,0.268167
1552.0,0.26811
1554.0,0.268053
1556.0,0.267845
1558.0,0.26819
1560.0,0.268162
1562.0,0.267736
1564.0,0.267879
1566.0,0.268302
1568.0,0.268241
1570.0,0.26768
1572.0,0.267576
1574.0,0.268
1576.0,0.268159
1578.0,0.2683
1580.0,0.268071
1582.0,0.267639
1584.0,0.267816
1586.0,0.268168
1588.0,0.267721
1590.0,0.267272
1592.0,0.267094
1594.0,0.26701
1596.0,0.267118
1598.0,0.267238
1600.0,0.267067
1602.0,0.266599
1604.0,0.266218
1606.0,0.266482
1608.0,0.266745
1610.0,0.266533
1612.0,0.266071
1614.0,0.265049
1616.0,0.265102
1618.0,0.265778
1620.0,0.265038
1622.0,0.264606
1624.0,0.265058
1626.0,0.265614
1628.0,0.265752
1630.0,0.265664
1632.0,0.265334
1634.0,0.265123
1636.0,0.264805
1638.0,0.264484
1640.0,0.264332
1642.0,0.264553
1644.0,0.264601
1646.0,0.264427
1648.0,0.264532
1650.0,0.264724
1652.0,0.264832
1654.0,0.264542
1656.0,0.264189
1658.0,0.264698
1660.0,0.264844
1662.0,0.264422
1664.0,0.264098
1666.0,0.263982
1668.0,0.2645
1670.0,0.264759
1672.0,0.26417
1674.0,0.263515
1676.0,0.263894
1678.0,0.264637
1680.0,0.26441
1682.0,0.264056
1684.0,0.264542
1686.0,0.264928
1688.0,0.264876
1690.0,0.264364
1692.0,0.264315
1694.0,0.264483
1696.0,0.264707
1698.0,0.265025
1700.0,0.265527
1702.0,0.265366
1704.0,0.265775
1706.0,0.265954
1708.0,0.265403
1710.0,0.26486
1712.0,0.264803
1714.0,0.265112
1716.0,0.265378
1718.0,0.265273
1720.0,0.265105
1722.0,0.265098
1724.0,0.265567
1726.0,0.265342
1728.0,0.264511
1730.0,0.264273
1732.0,0.26483
1734.0,0.264835
1736.0,0.264583
1738.0,0.264744
1740.0,0.264635
1742.0,0.265848
1744.0,0.266431
1746.0,0.265909
1748.0,0.265492
1750.0,0.265333
1752.0,0.265813
1754.0,0.266221
1756.0,0.264632
1758.0,0.264565
1760.0,0.266022
1762.0,0.266207
1764.0,0.266707
1766.0,0.266305
1768.0,0.265717
1770.0,0.26549
1772.0,0.264816
1774.0,0.265299
1776.0,0.265804
1778.0,0.265567
1780.0,0.264914
1782.0,0.265239
1784.0,0.265819
1786.0,0.265037
1788.0,0.265397
1790.0,0.266421
1792.0,0.26528
1794.0,0.265046
1796.0,0.265844
1798.0,0.264113
1800.0,0.263998
1802.0,0.262169
1804.0,0.260474
1806.0,0.270345
1808.0,0.279232
1810.0,0.270363
1812.0,0.271262
1814.0,0.299438
1816.0,0.311003
1818.0,0.289821
1820.0,0.240138
1822.0,0.257815
1824.0,0.273267
1826.0,0.246756
1828.0,0.202241
1830.0,0.166101
1832.0,0.37749
1834.0,0.0
1836.0,0.0
1838.0,0.0
1840.0,0.169769
1842.0,0.0710561
1844.0,0.177889
1846.0,0.301988
1848.0,0.388918
1850.0,0.980977
1852.0,0.723122
1854.0,0.610011
1856.0,1.0
1858.0,0.620318
1860.0,0.5047
1862.0,1.0
1864.0,0.593542
1866.0,0.212333
1868.0,0.237413
1870.0,0.523738
1872.0,1.0
1874.0,0.0
1876.0,0.0
1878.0,1.0
1880.0,0.526185
1882.0,0.611369
1884.0,0.279677
1886.0,0.25891
1888.0,0.252002
1890.0,0.299107
1892.0,0.235018
1894.0,0.173769
1896.0,0.221769
1898.0,0.319426
1900.0,0.302318
1902.0,0.231275
1904.0,0.246083
1906.0,0.169143
1908.0,0.244886
1910.0,0.679662
1912.0,0.825525
1914.0,0.276086
1916.0,0.436682
1918.0,0.2899
1920.0,0.217802
1922.0,0.223251
1924.0,0.257616
1926.0,0.289503
1928.0,0.267856
1930.0,0.266392
1932.0,0.277915
1934.0,0.269401
1936.0,0.274749
1938.0,0.277885
1940.0,0.264473
1942.0,0.269952
1944.0,0.274677
1946.0,0.265521
1948.0,0.245419
1950.0,0.237982
1952.0,0.244402
1954.0,0.245753
1956.0,0.25707
1958.0,0.273219
1960.0,0.275308
1962.0,0.271961
1964.0,0.265689
1966.0,0.258843
1968.0,0.259358
1970.0,0.258095
1972.0,0.253948
1974.0,0.256574
1976.0,0.259321
1978.0,0.260054
1980.0,0.260119
1982.0,0.26198
1984.0,0.261858
1986.0,0.260059
1988.0,0.259111
1990.0,0.259749
1992.0,0.262753
1994.0,0.264503
1996.0,0.264623
1998.0,0.266578
2000.0,0.266861
2002.0,0.257963
2004.0,0.252245
2006.0,0.263958
2008.0,0.270254
2010.0,0.274679
2012.0,0.272725
2014.0,0.272072
2016.0,0.262647
2018.0,0.25317
2020.0,0.253947
2022.0,0.25883
2024.0,0.264682
2026.0,0.268296
2028.0,0.266371
2030.0,0.263567
2032.0,0.263796
2034.0,0.263596
2036.0,0.263446
2038.0,0.262875
2040.0,0.263069
2042.0,0.265673
2044.0,0.267338
2046.0,0.269042
2048.0,0.269413
2050.0,0.270279
2052.0,0.270766
2054.0,0.270246
2056.0,0.271928
2058.0,0.272951
2060.0,0.26877
2062.0,0.268304
2064.0,0.269909
2066.0,0.26888
2068.0,0.267589
2070.0,0.268711
2072.0,0.269579
2074.0,0.270278
2076.0,0.268783
2078.0,0.266651
2080.0,0.267936
2082.0,0.267231
2084.0,0.264754
2086.0,0.267275
2088.0,0.272353
2090.0,0.272921
2092.0,0.271782
2094.0,0.27142
2096.0,0.270688
2098.0,0.270071
2100.0,0.268635
2102.0,0.269596
2104.0,0.270502
2106.0,0.269746
2108.0,0.268789
2110.0,0.26919
2112.0,0.268513
2114.0,0.267654
2116.0,0.268306
2118.0,0.269683
2120.0,0.27083
2122.0,0.270362
2124.0,0.269756
2126.0,0.268618
2128.0,0.267915
2130.0,0.267558
2132.0,0.267555
2134.0,0.268346
2136.0,0.270485
2138.0,0.270952
2140.0,0.268869
2142.0,0.267845
2144.0,0.269624
2146.0,0.270822
2148.0,0.270479
2150.0,0.269085
2152.0,0.267437
2154.0,0.268652
2156.0,0.269133
2158.0,0.268047
2160.0,0.268099
2162.0,0.267725
2164.0,0.267128
2166.0,0.26718
2168.0,0.266595
2170.0,0.265285
2172.0,0.263084
2174.0,0.260507
2176.0,0.260548
2178.0,0.262628
2180.0,0.263588
2182.0,0.263611
2184.0,0.261703
2186.0,0.260178
2188.0,0.25929
2190.0,0.258747
2192.0,0.258902
2194.0,0.258925
2196.0,0.258551
2198.0,0.258734
2200.0,0.257896
2202.0,0.25655
2204.0,0.254952
2206.0,0.254055
2208.0,0.254524
2210.0,0.256074
2212.0,0.257265
2214.0,0.257069
2216.0,0.257594
2218.0,0.256298
2220.0,0.255415
2222.0,0.256277
2224.0,0.256868
2226.0,0.256737
2228.0,0.254574
2230.0,0.253445
2232.0,0.253672
2234.0,0.253021
2236.0,0.253234
2238.0,0.253956
2240.0,0.254879
2242.0,0.256929
2244.0,0.257735
2246.0,0.258693
2248.0,0.257411
2250.0,0.255458
2252.0,0.255414
2254.0,0.252134
2256.0,0.24945
2258.0,0.252315
2260.0,0.255059
2262.0,0.256852
2264.0,0.257867
2266.0,0.254973
2268.0,0.254538
2270.0,0.255466
2272.0,0.251758
2274.0,0.254454
2276.0,0.256912
2278.0,0.255662
2280.0,0.256769
2282.0,0.259157
2284.0,0.257371
2286.0,0.254383
2288.0,0.252624
2290.0,0.253508
2292.0,0.255128
2294.0,0.253305
2296.0,0.250091
2298.0,0.249699
2300.0,0.24864
2302.0,0.24533
2304.0,0.24747
2306.0,0.251245
2308.0,0.250431
2310.0,0.251139
2312.0,0.252199
2314.0,0.253897
2316.0,0.253485
2318.0,0.254489
2320.0,0.256099
2322.0,0.252797
2324.0,0.250192
2326.0,0.248556
2328.0,0.252313
2330.0,0.248796
2332.0,0.244933
2334.0,0.249499
2336.0,0.253607
2338.0,0.250654
2340.0,0.249172
2342.0,0.25719
2344.0,0.267505
2346.0,0.264005
2348.0,0.255862
2350.0,0.253538
2352.0,0.255173
2354.0,0.254687
2356.0,0.253979
2358.0,0.257093
2360.0,0.259428
2362.0,0.261021
2364.0,0.256206
2366.0,0.251337
2368.0,0.250973
2370.0,0.250058
2372.0,0.255078
2374.0,0.260157
2376.0,0.255959
2378.0,0.24899
2380.0,0.248843
2382.0,0.241931
2384.0,0.239382
2386.0,0.255499
2388.0,0.252763
2390.0,0.247112
2392.0,0.253476
2394.0,0.250265
2396.0,0.245092
2398.0,0.246288
2400.0,0.248448
2402.0,0.255832
2404.0,0.257747
2406.0,0.255396
2408.0,0.262102
2410.0,0.26416
2412.0,0.245871
2414.0,0.226408
2416.0,0.222074
2418.0,0.22573
2420.0,0.236307
2422.0,0.247867
2424.0,0.266854
2426.0,0.270649
2428.0,0.26322
2430.0,0.257455
2432.0,0.255006
2434.0,0.255396
2436.0,0.258589
2438.0,0.244083
2440.0,0.229549
2442.0,0.24
2444.0,0.260909
2446.0,0.30013
2448.0,0.295426
2450.0,0.26912
2452.0,0.262552
2454.0,0.223151
2456.0,0.217336
2458.0,0.241645
2460.0,0.265718
2462.0,0.259085
2464.0,0.266292
2466.0,0.302003
2468.0,0.294376
2470.0,0.267348
2472.0,0.282012
2474.0,0.287839
2476.0,0.275004
2478.0,0.323652
2480.0,0.293386
2482.0,0.24839
2484.0,0.280112
2486.0,0.226991
2488.0,0.162055
2490.0,0.209883
2492.0,0.24345
2494.0,0.200056
2496.0,0.390818
2498.0,0.619705
2500.0,0.315879