File: data/spectra_ascii/AsphaltTrockenVerschmutzung2___corthum00455.txt
Wavelength (nm),Reflectance
350.0,0.0732121
352.0,0.074344
354.0,0.0738303
356.0,0.0747908
358.0,0.0755838
360.0,0.0757728
362.0,0.0764481
364.0,0.0770036
366.0,0.0773767
368.0,0.0777688
370.0,0.0785485
372.0,0.0794433
374.0,0.0798378
376.0,0.080426
378.0,0.0814005
380.0,0.0822118
382.0,0.0831416
384.0,0.0838004
386.0,0.0850623
388.0,0.0851276
390.0,0.0856627
392.0,0.086226
394.0,0.0868842
396.0,0.0879633
398.0,0.0887381
400.0,0.089261
402.0,0.0898061
404.0,0.0903026
406.0,0.0910339
408.0,0.0916038
410.0,0.0922398
412.0,0.0927661
414.0,0.0934397
416.0,0.0939926
418.0,0.0947482
420.0,0.0953806
422.0,0.0960584
424.0,0.0967474
426.0,0.097438
428.0,0.0981953
430.0,0.0990516
432.0,0.099859
434.0,0.100631
436.0,0.101323
438.0,0.101924
440.0,0.102693
442.0,0.103501
444.0,0.10411
446.0,0.104833
448.0,0.10543
450.0,0.106051
452.0,0.106691
454.0,0.107296
456.0,0.107935
458.0,0.108553
460.0,0.10911
462.0,0.109604
464.0,0.110169
466.0,0.11079
468.0,0.111294
470.0,0.11191
472.0,0.112444
474.0,0.113015
476.0,0.113526
478.0,0.11407
480.0,0.114752
482.0,0.115487
484.0,0.115901
486.0,0.116577
488.0,0.117321
490.0,0.117985
492.0,0.118685
494.0,0.1193
496.0,0.120007
498.0,0.120796
500.0,0.121469
502.0,0.122155
504.0,0.122853
506.0,0.123549
508.0,0.124295
510.0,0.125039
512.0,0.125684
514.0,0.126467
516.0,0.127195
518.0,0.128026
520.0,0.128798
522.0,0.129531
524.0,0.130293
526.0,0.131093
528.0,0.131999
530.0,0.132881
532.0,0.13374
534.0,0.134664
536.0,0.135613
538.0,0.136594
540.0,0.137637
542.0,0.138763
544.0,0.139829
546.0,0.140884
548.0,0.141981
550.0,0.14312
552.0,0.144321
554.0,0.14558
556.0,0.146851
558.0,0.148128
560.0,0.149364
562.0,0.150638
564.0,0.151798
566.0,0.153018
568.0,0.154197
570.0,0.15535
572.0,0.156476
574.0,0.157604
576.0,0.1587
578.0,0.159745
580.0,0.160775
582.0,0.161843
584.0,0.162895
586.0,0.163871
588.0,0.164811
590.0,0.16579
592.0,0.166574
594.0,0.167433
596.0,0.168293
598.0,0.169123
600.0,0.169955
602.0,0.170764
604.0,0.171543
606.0,0.172349
608.0,0.173065
610.0,0.173802
612.0,0.174477
614.0,0.175236
616.0,0.175976
618.0,0.176668
620.0,0.177362
622.0,0.178085
624.0,0.178713
626.0,0.179401
628.0,0.180096
630.0,0.180717
632.0,0.181377
634.0,0.182065
636.0,0.182733
638.0,0.183384
640.0,0.184008
642.0,0.18465
644.0,0.185316
646.0,0.185873
648.0,0.186384
650.0,0.187108
652.0,0.187654
654.0,0.188153
656.0,0.188755
658.0,0.189386
660.0,0.189949
662.0,0.190427
664.0,0.190959
666.0,0.191445
668.0,0.191973
670.0,0.192414
672.0,0.192915
674.0,0.193455
676.0,0.193844
678.0,0.194328
680.0,0.194698
682.0,0.195128
684.0,0.195643
686.0,0.196045
688.0,0.19648
690.0,0.196888
692.0,0.197323
694.0,0.197717
696.0,0.198045
698.0,0.198404
700.0,0.198804
702.0,0.199167
704.0,0.19955
706.0,0.199902
708.0,0.200162
710.0,0.200574
712.0,0.200938
714.0,0.201295
716.0,0.201629
718.0,0.201929
720.0,0.202272
722.0,0.202717
724.0,0.202916
726.0,0.203409
728.0,0.203786
730.0,0.204208
732.0,0.204651
734.0,0.205036
736.0,0.205469
738.0,0.205919
740.0,0.206326
742.0,0.206763
744.0,0.207184
746.0,0.207544
748.0,0.208012
750.0,0.208473
752.0,0.208938
754.0,0.209359
756.0,0.209842
758.0,0.210366
760.0,0.210424
762.0,0.210962
764.0,0.211498
766.0,0.212151
768.0,0.212628
770.0,0.212949
772.0,0.213337
774.0,0.213781
776.0,0.214176
778.0,0.214606
780.0,0.215031
782.0,0.215426
784.0,0.215859
786.0,0.216225
788.0,0.21662
790.0,0.217027
792.0,0.217453
794.0,0.217813
796.0,0.218207
798.0,0.218628
800.0,0.218998
802.0,0.219387
804.0,0.219753
806.0,0.220137
808.0,0.220482
810.0,0.220868
812.0,0.221225
814.0,0.221479
816.0,0.221797
818.0,0.222235
820.0,0.222534
822.0,0.222828
824.0,0.223121
826.0,0.223558
828.0,0.223824
830.0,0.224154
832.0,0.224422
834.0,0.224867
836.0,0.225118
838.0,0.225475
840.0,0.225706
842.0,0.225963
844.0,0.226314
846.0,0.226656
848.0,0.226861
850.0,0.227024
852.0,0.227513
854.0,0.227862
856.0,0.227969
858.0,0.228393
860.0,0.228711
862.0,0.228826
864.0,0.229028
866.0,0.229294
868.0,0.229557
870.0,0.229664
872.0,0.229989
874.0,0.230205
876.0,0.230429
878.0,0.230655
880.0,0.23098
882.0,0.23117
884.0,0.231389
886.0,0.231736
888.0,0.232111
890.0,0.232331
892.0,0.232534
894.0,0.232917
896.0,0.232737
898.0,0.233005
900.0,0.232998
902.0,0.233334
904.0,0.233669
906.0,0.233615
908.0,0.234024
910.0,0.234379
912.0,0.234419
914.0,0.234672
916.0,0.234815
918.0,0.235256
920.0,0.235029
922.0,0.235537
924.0,0.235907
926.0,0.235922
928.0,0.235489
930.0,0.235123
932.0,0.233717
934.0,0.2333
936.0,0.233189
938.0,0.233966
940.0,0.234431
942.0,0.234495
944.0,0.234378
946.0,0.235646
948.0,0.234203
950.0,0.23538
952.0,0.236071
954.0,0.235851
956.0,0.236113
958.0,0.23625
960.0,0.236947
962.0,0.237721
964.0,0.238045
966.0,0.238714
968.0,0.239387
970.0,0.239009
972.0,0.239203
974.0,0.239222
976.0,0.239606
978.0,0.239301
980.0,0.239798
982.0,0.239554
984.0,0.240355
986.0,0.241276
988.0,0.239888
990.0,0.240322
992.0,0.240376
994.0,0.241093
996.0,0.240792
998.0,0.240546
1000.0,0.240686
1002.0,0.246049
1004.0,0.245879
1006.0,0.245826
1008.0,0.246184
1010.0,0.24633
1012.0,0.246347
1014.0,0.246347
1016.0,0.246464
1018.0,0.247108
1020.0,0.246868
1022.0,0.246629
1024.0,0.247123
1026.0,0.247293
1028.0,0.247411
1030.0,0.247593
1032.0,0.247252
1034.0,0.247286
1036.0,0.24706
1038.0,0.247378
1040.0,0.248477
1042.0,0.24859
1044.0,0.24808
1046.0,0.247762
1048.0,0.247932
1050.0,0.248117
1052.0,0.248078
1054.0,0.248153
1056.0,0.248299
1058.0,0.248312
1060.0,0.24819
1062.0,0.248336
1064.0,0.248491
1066.0,0.248379
1068.0,0.248214
1070.0,0.248428
1072.0,0.249006
1074.0,0.249188
1076.0,0.249129
1078.0,0.24912
1080.0,0.249036
1082.0,0.248993
1084.0,0.249049
1086.0,0.248911
1088.0,0.249189
1090.0,0.249681
1092.0,0.249793
1094.0,0.24934
1096.0,0.249361
1098.0,0.249688
1100.0,0.249932
1102.0,0.249725
1104.0,0.249491
1106.0,0.249681
1108.0,0.249552
1110.0,0.249756
1112.0,0.249881
1114.0,0.249934
1116.0,0.250134
1118.0,0.250617
1120.0,0.24932
1122.0,0.249018
1124.0,0.24925
1126.0,0.249656
1128.0,0.24899
1130.0,0.248541
1132.0,0.24885
1134.0,0.248901
1136.0,0.249143
1138.0,0.249857
1140.0,0.250051
1142.0,0.249933
1144.0,0.250107
1146.0,0.249972
1148.0,0.249912
1150.0,0.249818
1152.0,0.249561
1154.0,0.250043
1156.0,0.251238
1158.0,0.251629
1160.0,0.251298
1162.0,0.251017
1164.0,0.251407
1166.0,0.251779
1168.0,0.252062
1170.0,0.252267
1172.0,0.252362
1174.0,0.252422
1176.0,0.252275
1178.0,0.25244
1180.0,0.252674
1182.0,0.252708
1184.0,0.252839
1186.0,0.253243
1188.0,0.253453
1190.0,0.253729
1192.0,0.254011
1194.0,0.253823
1196.0,0.25382
1198.0,0.25397
1200.0,0.253782
1202.0,0.253566
1204.0,0.253876
1206.0,0.254231
1208.0,0.254011
1210.0,0.253876
1212.0,0.253826
1214.0,0.254034
1216.0,0.254367
1218.0,0.254212
1220.0,0.253907
1222.0,0.253933
1224.0,0.2539
1226.0,0.253964
1228.0,0.254241
1230.0,0.25446
1232.0,0.254436
1234.0,0.254191
1236.0,0.254111
1238.0,0.254115
1240.0,0.253989
1242.0,0.253901
1244.0,0.254161
1246.0,0.254314
1248.0,0.254256
1250.0,0.254388
1252.0,0.25442
1254.0,0.254491
1256.0,0.254463
1258.0,0.254278
1260.0,0.253982
1262.0,0.253864
1264.0,0.253837
1266.0,0.253564
1268.0,0.253561
1270.0,0.25399
1272.0,0.254187
1274.0,0.254049
1276.0,0.253881
1278.0,0.253797
1280.0,0.253981
1282.0,0.254167
1284.0,0.254266
1286.0,0.254144
1288.0,0.254178
1290.0,0.25415
1292.0,0.253924
1294.0,0.254172
1296.0,0.25447
1298.0,0.254324
1300.0,0.254296
1302.0,0.254141
1304.0,0.25406
1306.0,0.254166
1308.0,0.2541
1310.0,0.254083
1312.0,0.253989
1314.0,0.254095
1316.0,0.254334
1318.0,0.254485
1320.0,0.25432
1322.0,0.254353
1324.0,0.254657
1326.0,0.254676
1328.0,0.254723
1330.0,0.254677
1332.0,0.254476
1334.0,0.254687
1336.0,0.254641
1338.0,0.254696
1340.0,0.255016
1342.0,0.255607
1344.0,0.256278
1346.0,0.256374
1348.0,0.256209
1350.0,0.25534
1352.0,0.25562
1354.0,0.260938
1356.0,0.267924
1358.0,0.287665
1360.0,0.324564
1362.0,0.411223
1364.0,0.721892
1366.0,0.529671
1368.0,0.357992
1370.0,0.355932
1372.0,0.520808
1374.0,0.648819
1376.0,0.427302
1378.0,0.326856
1380.0,0.337302
1382.0,0.362358
1384.0,0.390478
1386.0,0.383758
1388.0,0.301867
1390.0,0.269617
1392.0,0.260585
1394.0,0.268895
1396.0,0.269665
1398.0,0.25443
1400.0,0.265118
1402.0,0.273971
1404.0,0.255659
1406.0,0.243581
1408.0,0.247963
1410.0,0.248155
1412.0,0.246139
1414.0,0.247039
1416.0,0.249134
1418.0,0.252021
1420.0,0.249823
1422.0,0.250756
1424.0,0.25207
1426.0,0.250713
1428.0,0.251139
1430.0,0.252421
1432.0,0.253467
1434.0,0.253069
1436.0,0.252984
1438.0,0.252745
1440.0,0.253732
1442.0,0.254149
1444.0,0.254182
1446.0,0.254196
1448.0,0.254832
1450.0,0.255178
1452.0,0.25563
1454.0,0.256421
1456.0,0.256665
1458.0,0.256963
1460.0,0.2578
1462.0,0.258016
1464.0,0.257815
1466.0,0.257267
1468.0,0.256235
1470.0,0.256211
1472.0,0.25706
1474.0,0.257613
1476.0,0.25829
1478.0,0.258825
1480.0,0.258861
1482.0,0.259694
1484.0,0.260256
1486.0,0.260091
1488.0,0.260965
1490.0,0.261135
1492.0,0.261265
1494.0,0.261516
1496.0,0.261649
1498.0,0.262305
1500.0,0.262411
1502.0,0.262067
1504.0,0.261836
1506.0,0.261782
1508.0,0.261895
1510.0,0.261951
1512.0,0.261841
1514.0,0.261875
1516.0,0.262286
1518.0,0.262331
1520.0,0.262151
1522.0,0.262322
1524.0,0.262401
1526.0,0.262645
1528.0,0.262621
1530.0,0.26242
1532.0,0.262231
1534.0,0.262165
1536.0,0.262048
1538.0,0.262203
1540.0,0.262244
1542.0,0.262249
1544.0,0.262005
1546.0,0.261838
1548.0,0.261965
1550.0,0.262041
1552.0,0.262097
1554.0,0.26217
1556.0,0.261997
1558.0,0.261891
1560.0,0.261781
1562.0,0.261628
1564.0,0.261605
1566.0,0.261677
1568.0,0.261706
1570.0,0.261239
1572.0,0.261189
1574.0,0.261453
1576.0,0.261201
1578.0,0.261186
1580.0,0.261242
1582.0,0.26096
1584.0,0.260974
1586.0,0.26138
1588.0,0.260841
1590.0,0.260446
1592.0,0.260744
1594.0,0.260512
1596.0,0.260023
1598.0,0.26019
1600.0,0.260208
1602.0,0.259767
1604.0,0.259553
1606.0,0.259891
1608.0,0.260154
1610.0,0.259762
1612.0,0.25929
1614.0,0.258623
1616.0,0.258544
1618.0,0.258515
1620.0,0.258206
1622.0,0.258353
1624.0,0.25844
1626.0,0.258541
1628.0,0.258702
1630.0,0.258981
1632.0,0.258625
1634.0,0.258315
1636.0,0.258251
1638.0,0.258057
1640.0,0.25791
1642.0,0.257687
1644.0,0.25785
1646.0,0.258063
1648.0,0.258068
1650.0,0.258121
1652.0,0.258105
1654.0,0.257794
1656.0,0.257505
1658.0,0.257843
1660.0,0.257492
1662.0,0.257157
1664.0,0.257181
1666.0,0.256599
1668.0,0.257145
1670.0,0.257795
1672.0,0.257298
1674.0,0.256899
1676.0,0.257178
1678.0,0.257947
1680.0,0.257973
1682.0,0.257446
1684.0,0.257689
1686.0,0.257629
1688.0,0.257754
1690.0,0.257839
1692.0,0.257256
1694.0,0.257372
1696.0,0.257501
1698.0,0.257682
1700.0,0.257967
1702.0,0.2576
1704.0,0.257667
1706.0,0.257536
1708.0,0.257626
1710.0,0.257699
1712.0,0.256987
1714.0,0.256744
1716.0,0.256863
1718.0,0.256958
1720.0,0.256899
1722.0,0.256535
1724.0,0.256676
1726.0,0.256704
1728.0,0.256323
1730.0,0.25613
1732.0,0.256163
1734.0,0.256103
1736.0,0.256399
1738.0,0.256635
1740.0,0.257033
1742.0,0.25785
1744.0,0.257951
1746.0,0.257485
1748.0,0.257255
1750.0,0.257637
1752.0,0.257853
1754.0,0.257297
1756.0,0.255823
1758.0,0.255771
1760.0,0.257096
1762.0,0.257976
1764.0,0.257727
1766.0,0.256019
1768.0,0.256542
1770.0,0.256424
1772.0,0.255654
1774.0,0.256142
1776.0,0.256139
1778.0,0.255404
1780.0,0.254676
1782.0,0.254836
1784.0,0.25555
1786.0,0.255004
1788.0,0.254188
1790.0,0.253866
1792.0,0.253305
1794.0,0.254256
1796.0,0.254191
1798.0,0.253223
1800.0,0.25345
1802.0,0.251379
1804.0,0.25123
1806.0,0.25636
1808.0,0.262073
1810.0,0.264568
1812.0,0.269507
1814.0,0.302029
1816.0,0.312783
1818.0,0.287728
1820.0,0.237355
1822.0,0.241961
1824.0,0.252242
1826.0,0.235711
1828.0,0.228998
1830.0,0.374308
1832.0,0.784464
1834.0,0.0
1836.0,0.0
1838.0,0.0
1840.0,0.338263
1842.0,0.474792
1844.0,0.501021
1846.0,0.47922
1848.0,0.762146
1850.0,1.0
1852.0,0.910012
1854.0,0.570842
1856.0,0.758762
1858.0,0.466455
1860.0,0.50582
1862.0,1.0
1864.0,1.0
1866.0,0.486172
1868.0,0.884788
1870.0,0.610601
1872.0,0.776299
1874.0,0.0
1876.0,0.0
1878.0,1.0
1880.0,1.0
1882.0,0.771628
1884.0,0.289785
1886.0,0.280762
1888.0,0.276641
1890.0,0.218412
1892.0,0.169886
1894.0,0.17828
1896.0,0.189107
1898.0,0.202674
1900.0,0.136802
1902.0,0.200556
1904.0,0.288421
1906.0,0.35818
1908.0,0.29006
1910.0,0.770814
1912.0,0.956586
1914.0,0.202916
1916.0,0.470363
1918.0,0.501209
1920.0,0.315858
1922.0,0.279505
1924.0,0.299732
1926.0,0.29821
1928.0,0.238201
1930.0,0.219356
1932.0,0.261071
1934.0,0.257668
1936.0,0.24499
1938.0,0.259127
1940.0,0.260927
1942.0,0.266313
1944.0,0.258372
1946.0,0.255842
1948.0,0.257645
1950.0,0.245705
1952.0,0.246048
1954.0,0.247965
1956.0,0.254663
1958.0,0.245787
1960.0,0.252271
1962.0,0.265038
1964.0,0.257648
1966.0,0.248664
1968.0,0.246921
1970.0,0.250414
1972.0,0.251365
1974.0,0.25336
1976.0,0.255693
1978.0,0.253049
1980.0,0.251445
1982.0,0.253199
1984.0,0.254214
1986.0,0.254621
1988.0,0.252108
1990.0,0.24983
1992.0,0.250675
1994.0,0.252529
1996.0,0.251518
1998.0,0.250707
2000.0,0.250695
2002.0,0.247566
2004.0,0.250366
2006.0,0.253652
2008.0,0.250059
2010.0,0.250497
2012.0,0.248516
2014.0,0.259418
2016.0,0.261762
2018.0,0.253408
2020.0,0.253789
2022.0,0.250116
2024.0,0.253033
2026.0,0.257739
2028.0,0.257538
2030.0,0.256123
2032.0,0.256519
2034.0,0.257216
2036.0,0.257641
2038.0,0.257038
2040.0,0.256541
2042.0,0.258225
2044.0,0.258969
2046.0,0.260319
2048.0,0.260405
2050.0,0.258757
2052.0,0.258649
2054.0,0.261795
2056.0,0.264888
2058.0,0.264163
2060.0,0.260826
2062.0,0.260306
2064.0,0.262074
2066.0,0.263108
2068.0,0.264729
2070.0,0.264579
2072.0,0.262909
2074.0,0.262323
2076.0,0.260336
2078.0,0.258585
2080.0,0.260266
2082.0,0.26066
2084.0,0.259067
2086.0,0.258933
2088.0,0.261378
2090.0,0.262364
2092.0,0.262625
2094.0,0.263189
2096.0,0.262303
2098.0,0.260934
2100.0,0.25934
2102.0,0.259782
2104.0,0.26195
2106.0,0.262708
2108.0,0.262233
2110.0,0.262737
2112.0,0.262812
2114.0,0.263229
2116.0,0.262139
2118.0,0.260388
2120.0,0.261396
2122.0,0.263154
2124.0,0.26354
2126.0,0.260678
2128.0,0.258252
2130.0,0.257388
2132.0,0.257326
2134.0,0.258363
2136.0,0.259604
2138.0,0.260604
2140.0,0.260242
2142.0,0.260413
2144.0,0.262038
2146.0,0.262634
2148.0,0.261304
2150.0,0.258569
2152.0,0.25706
2154.0,0.259053
2156.0,0.259023
2158.0,0.256947
2160.0,0.257827
2162.0,0.25956
2164.0,0.258995
2166.0,0.258677
2168.0,0.25789
2170.0,0.256483
2172.0,0.254494
2174.0,0.25274
2176.0,0.252985
2178.0,0.253795
2180.0,0.255784
2182.0,0.256355
2184.0,0.252475
2186.0,0.249972
2188.0,0.249601
2190.0,0.249781
2192.0,0.251082
2194.0,0.251212
2196.0,0.248838
2198.0,0.248425
2200.0,0.247805
2202.0,0.247957
2204.0,0.247277
2206.0,0.245202
2208.0,0.245255
2210.0,0.24812
2212.0,0.249082
2214.0,0.246158
2216.0,0.244842
2218.0,0.245563
2220.0,0.245244
2222.0,0.245609
2224.0,0.246496
2226.0,0.246416
2228.0,0.245921
2230.0,0.246521
2232.0,0.246472
2234.0,0.24466
2236.0,0.243953
2238.0,0.243504
2240.0,0.244171
2242.0,0.245275
2244.0,0.244697
2246.0,0.246099
2248.0,0.24838
2250.0,0.249219
2252.0,0.247186
2254.0,0.244257
2256.0,0.244637
2258.0,0.248346
2260.0,0.249298
2262.0,0.248495
2264.0,0.246421
2266.0,0.245142
2268.0,0.246802
2270.0,0.247263
2272.0,0.245051
2274.0,0.246068
2276.0,0.246398
2278.0,0.246062
2280.0,0.24644
2282.0,0.246837
2284.0,0.24456
2286.0,0.243756
2288.0,0.243229
2290.0,0.244302
2292.0,0.245836
2294.0,0.241869
2296.0,0.240289
2298.0,0.241464
2300.0,0.240741
2302.0,0.244618
2304.0,0.244639
2306.0,0.241918
2308.0,0.239876
2310.0,0.239457
2312.0,0.23939
2314.0,0.240168
2316.0,0.242225
2318.0,0.243558
2320.0,0.244415
2322.0,0.244858
2324.0,0.242002
2326.0,0.239979
2328.0,0.242493
2330.0,0.242237
2332.0,0.239484
2334.0,0.240255
2336.0,0.24105
2338.0,0.242847
2340.0,0.245036
2342.0,0.247032
2344.0,0.249483
2346.0,0.248675
2348.0,0.247676
2350.0,0.247629
2352.0,0.250222
2354.0,0.252577
2356.0,0.248171
2358.0,0.246066
2360.0,0.244564
2362.0,0.245485
2364.0,0.245197
2366.0,0.238686
2368.0,0.239945
2370.0,0.236865
2372.0,0.230515
2374.0,0.233726
2376.0,0.236591
2378.0,0.236096
2380.0,0.239107
2382.0,0.240506
2384.0,0.246245
2386.0,0.259399
2388.0,0.246317
2390.0,0.232134
2392.0,0.230828
2394.0,0.235862
2396.0,0.24096
2398.0,0.249372
2400.0,0.255452
2402.0,0.256934
2404.0,0.248499
2406.0,0.240352
2408.0,0.243232
2410.0,0.248508
2412.0,0.229054
2414.0,0.214115
2416.0,0.223088
2418.0,0.233412
2420.0,0.241405
2422.0,0.245536
2424.0,0.244417
2426.0,0.233052
2428.0,0.235475
2430.0,0.246191
2432.0,0.248878
2434.0,0.236629
2436.0,0.221199
2438.0,0.218487
2440.0,0.225173
2442.0,0.230038
2444.0,0.246738
2446.0,0.294618
2448.0,0.286361
2450.0,0.266133
2452.0,0.252468
2454.0,0.224521
2456.0,0.223796
2458.0,0.252167
2460.0,0.264552
2462.0,0.241536
2464.0,0.254414
2466.0,0.285725
2468.0,0.301688
2470.0,0.26143
2472.0,0.264278
2474.0,0.317952
2476.0,0.310727
2478.0,0.351875
2480.0,0.361597
2482.0,0.336842
2484.0,0.371353
2486.0,0.254679
2488.0,0.207475
2490.0,0.415652
2492.0,0.513407
2494.0,0.359705
2496.0,0.503674
2498.0,0.45799
2500.0,0.162363