File: data/spectra_ascii/AsphaltTrockenVerschmutzung2___corthum00454.txt
Wavelength (nm),Reflectance
350.0,0.073032
352.0,0.0745801
354.0,0.0744277
356.0,0.075038
358.0,0.0753947
360.0,0.0755421
362.0,0.0765895
364.0,0.0771836
366.0,0.076988
368.0,0.078136
370.0,0.0783733
372.0,0.0792513
374.0,0.0798277
376.0,0.0802447
378.0,0.0811432
380.0,0.0821563
382.0,0.0830612
384.0,0.0834714
386.0,0.0845034
388.0,0.0849013
390.0,0.0855988
392.0,0.0864327
394.0,0.0867968
396.0,0.087928
398.0,0.0886485
400.0,0.0890502
402.0,0.0895554
404.0,0.0902307
406.0,0.0908452
408.0,0.0914353
410.0,0.0921378
412.0,0.0927115
414.0,0.0933481
416.0,0.0940728
418.0,0.0947844
420.0,0.0953235
422.0,0.0958994
424.0,0.0966369
426.0,0.0973756
428.0,0.0981042
430.0,0.0989412
432.0,0.0996419
434.0,0.100502
436.0,0.101246
438.0,0.101907
440.0,0.102635
442.0,0.103434
444.0,0.104001
446.0,0.104733
448.0,0.105303
450.0,0.105992
452.0,0.106563
454.0,0.107219
456.0,0.107784
458.0,0.108408
460.0,0.109002
462.0,0.109469
464.0,0.110051
466.0,0.110645
468.0,0.111224
470.0,0.111862
472.0,0.112337
474.0,0.11287
476.0,0.113477
478.0,0.113967
480.0,0.114634
482.0,0.11525
484.0,0.115757
486.0,0.116487
488.0,0.117237
490.0,0.117877
492.0,0.118544
494.0,0.119218
496.0,0.119916
498.0,0.120633
500.0,0.121346
502.0,0.122128
504.0,0.122812
506.0,0.123451
508.0,0.124138
510.0,0.124957
512.0,0.125626
514.0,0.126345
516.0,0.127127
518.0,0.127931
520.0,0.128666
522.0,0.129442
524.0,0.130258
526.0,0.131037
528.0,0.131946
530.0,0.132803
532.0,0.133683
534.0,0.134639
536.0,0.135609
538.0,0.136602
540.0,0.137622
542.0,0.138736
544.0,0.139772
546.0,0.140856
548.0,0.141948
550.0,0.143132
552.0,0.144335
554.0,0.145562
556.0,0.146837
558.0,0.148172
560.0,0.149453
562.0,0.150685
564.0,0.151818
566.0,0.153038
568.0,0.154261
570.0,0.155405
572.0,0.156551
574.0,0.157655
576.0,0.158781
578.0,0.159834
580.0,0.160872
582.0,0.161905
584.0,0.16295
586.0,0.163979
588.0,0.164921
590.0,0.16594
592.0,0.166784
594.0,0.167597
596.0,0.168479
598.0,0.169286
600.0,0.17012
602.0,0.170934
604.0,0.171725
606.0,0.172551
608.0,0.173196
610.0,0.173936
612.0,0.174705
614.0,0.175426
616.0,0.176139
618.0,0.176892
620.0,0.177573
622.0,0.178278
624.0,0.178934
626.0,0.179633
628.0,0.180292
630.0,0.180932
632.0,0.181628
634.0,0.182313
636.0,0.182966
638.0,0.183585
640.0,0.184191
642.0,0.184896
644.0,0.185502
646.0,0.186072
648.0,0.186618
650.0,0.1873
652.0,0.187797
654.0,0.188358
656.0,0.189018
658.0,0.189496
660.0,0.190081
662.0,0.190575
664.0,0.191152
666.0,0.191638
668.0,0.192118
670.0,0.192609
672.0,0.193044
674.0,0.193563
676.0,0.193993
678.0,0.194485
680.0,0.194879
682.0,0.195338
684.0,0.195793
686.0,0.19615
688.0,0.196661
690.0,0.197069
692.0,0.197505
694.0,0.197902
696.0,0.198191
698.0,0.198606
700.0,0.19897
702.0,0.199329
704.0,0.199723
706.0,0.19998
708.0,0.200308
710.0,0.200677
712.0,0.200996
714.0,0.201376
716.0,0.201728
718.0,0.202133
720.0,0.20242
722.0,0.202812
724.0,0.203055
726.0,0.203521
728.0,0.20395
730.0,0.204302
732.0,0.204755
734.0,0.205134
736.0,0.205519
738.0,0.205959
740.0,0.206397
742.0,0.206849
744.0,0.207226
746.0,0.207647
748.0,0.208082
750.0,0.208497
752.0,0.208973
754.0,0.209388
756.0,0.20988
758.0,0.210404
760.0,0.210615
762.0,0.211151
764.0,0.211677
766.0,0.212248
768.0,0.212658
770.0,0.213007
772.0,0.2134
774.0,0.213833
776.0,0.214299
778.0,0.2147
780.0,0.215097
782.0,0.21552
784.0,0.215936
786.0,0.216329
788.0,0.216724
790.0,0.217189
792.0,0.217562
794.0,0.217919
796.0,0.218314
798.0,0.218709
800.0,0.219115
802.0,0.219443
804.0,0.219864
806.0,0.220237
808.0,0.220635
810.0,0.221018
812.0,0.221357
814.0,0.221654
816.0,0.222063
818.0,0.222415
820.0,0.222734
822.0,0.22303
824.0,0.223405
826.0,0.22373
828.0,0.224073
830.0,0.224376
832.0,0.224652
834.0,0.225054
836.0,0.225306
838.0,0.225643
840.0,0.225902
842.0,0.226294
844.0,0.226521
846.0,0.226851
848.0,0.227111
850.0,0.227331
852.0,0.227762
854.0,0.228089
856.0,0.228267
858.0,0.228551
860.0,0.228818
862.0,0.229079
864.0,0.229329
866.0,0.22959
868.0,0.229785
870.0,0.230053
872.0,0.230312
874.0,0.230527
876.0,0.230713
878.0,0.230974
880.0,0.231309
882.0,0.231486
884.0,0.231685
886.0,0.231984
888.0,0.232483
890.0,0.232679
892.0,0.232888
894.0,0.233164
896.0,0.233077
898.0,0.233338
900.0,0.233492
902.0,0.23398
904.0,0.23412
906.0,0.234212
908.0,0.234388
910.0,0.234727
912.0,0.234946
914.0,0.235073
916.0,0.2355
918.0,0.235502
920.0,0.235584
922.0,0.236063
924.0,0.236452
926.0,0.236401
928.0,0.235998
930.0,0.235414
932.0,0.234665
934.0,0.233696
936.0,0.233633
938.0,0.234888
940.0,0.235119
942.0,0.234869
944.0,0.235335
946.0,0.236292
948.0,0.235754
950.0,0.235592
952.0,0.236783
954.0,0.237293
956.0,0.237219
958.0,0.237205
960.0,0.23807
962.0,0.238136
964.0,0.239106
966.0,0.239509
968.0,0.2399
970.0,0.239814
972.0,0.239901
974.0,0.24001
976.0,0.240483
978.0,0.239971
980.0,0.240344
982.0,0.24021
984.0,0.240996
986.0,0.241181
988.0,0.240711
990.0,0.24145
992.0,0.241607
994.0,0.241484
996.0,0.24098
998.0,0.24163
1000.0,0.241744
1002.0,0.246219
1004.0,0.246141
1006.0,0.24631
1008.0,0.246375
1010.0,0.246842
1012.0,0.246996
1014.0,0.247079
1016.0,0.246804
1018.0,0.247227
1020.0,0.247277
1022.0,0.247285
1024.0,0.24731
1026.0,0.247407
1028.0,0.247652
1030.0,0.247978
1032.0,0.248091
1034.0,0.248124
1036.0,0.247819
1038.0,0.248077
1040.0,0.248459
1042.0,0.248472
1044.0,0.248298
1046.0,0.248325
1048.0,0.248805
1050.0,0.249299
1052.0,0.249068
1054.0,0.249394
1056.0,0.249814
1058.0,0.249443
1060.0,0.249224
1062.0,0.24941
1064.0,0.249694
1066.0,0.249404
1068.0,0.248721
1070.0,0.248502
1072.0,0.249282
1074.0,0.249518
1076.0,0.249469
1078.0,0.249442
1080.0,0.249888
1082.0,0.250166
1084.0,0.250206
1086.0,0.249726
1088.0,0.249771
1090.0,0.2503
1092.0,0.250482
1094.0,0.250359
1096.0,0.250252
1098.0,0.250298
1100.0,0.250256
1102.0,0.250215
1104.0,0.250173
1106.0,0.250411
1108.0,0.250643
1110.0,0.250891
1112.0,0.251211
1114.0,0.251034
1116.0,0.250738
1118.0,0.251023
1120.0,0.250844
1122.0,0.250967
1124.0,0.250825
1126.0,0.250892
1128.0,0.250068
1130.0,0.249501
1132.0,0.24974
1134.0,0.249743
1136.0,0.250062
1138.0,0.250829
1140.0,0.250855
1142.0,0.251071
1144.0,0.2513
1146.0,0.250817
1148.0,0.251116
1150.0,0.251549
1152.0,0.251772
1154.0,0.251795
1156.0,0.252358
1158.0,0.252916
1160.0,0.252996
1162.0,0.25274
1164.0,0.25272
1166.0,0.253066
1168.0,0.253376
1170.0,0.253709
1172.0,0.25392
1174.0,0.254055
1176.0,0.253838
1178.0,0.253895
1180.0,0.254296
1182.0,0.254525
1184.0,0.254671
1186.0,0.255086
1188.0,0.255218
1190.0,0.255249
1192.0,0.255242
1194.0,0.255112
1196.0,0.25518
1198.0,0.255411
1200.0,0.255361
1202.0,0.255052
1204.0,0.255125
1206.0,0.255411
1208.0,0.255273
1210.0,0.255261
1212.0,0.25545
1214.0,0.255616
1216.0,0.255778
1218.0,0.255712
1220.0,0.255513
1222.0,0.255541
1224.0,0.255589
1226.0,0.255811
1228.0,0.256134
1230.0,0.256178
1232.0,0.25599
1234.0,0.255687
1236.0,0.255612
1238.0,0.255517
1240.0,0.255393
1242.0,0.255261
1244.0,0.25546
1246.0,0.255734
1248.0,0.255686
1250.0,0.255731
1252.0,0.255724
1254.0,0.255646
1256.0,0.255657
1258.0,0.255724
1260.0,0.255893
1262.0,0.255943
1264.0,0.25572
1266.0,0.25549
1268.0,0.255382
1270.0,0.255275
1272.0,0.255266
1274.0,0.25533
1276.0,0.255408
1278.0,0.255473
1280.0,0.255657
1282.0,0.25568
1284.0,0.255631
1286.0,0.255754
1288.0,0.256055
1290.0,0.256152
1292.0,0.255994
1294.0,0.256163
1296.0,0.25619
1298.0,0.256009
1300.0,0.255884
1302.0,0.255571
1304.0,0.255726
1306.0,0.255856
1308.0,0.255734
1310.0,0.255737
1312.0,0.255853
1314.0,0.256043
1316.0,0.256299
1318.0,0.256182
1320.0,0.255766
1322.0,0.255733
1324.0,0.256128
1326.0,0.256428
1328.0,0.256566
1330.0,0.256345
1332.0,0.256044
1334.0,0.25623
1336.0,0.25646
1338.0,0.256981
1340.0,0.257157
1342.0,0.257068
1344.0,0.257516
1346.0,0.25767
1348.0,0.257104
1350.0,0.25649
1352.0,0.256017
1354.0,0.258663
1356.0,0.258355
1358.0,0.250655
1360.0,0.254578
1362.0,0.354063
1364.0,0.72496
1366.0,0.599863
1368.0,0.374618
1370.0,0.403048
1372.0,0.470876
1374.0,0.567128
1376.0,0.384625
1378.0,0.324923
1380.0,0.356675
1382.0,0.371602
1384.0,0.301655
1386.0,0.294768
1388.0,0.274201
1390.0,0.284496
1392.0,0.276998
1394.0,0.268563
1396.0,0.266527
1398.0,0.244959
1400.0,0.254609
1402.0,0.273745
1404.0,0.265477
1406.0,0.252292
1408.0,0.252499
1410.0,0.255238
1412.0,0.256916
1414.0,0.255897
1416.0,0.254414
1418.0,0.254505
1420.0,0.253579
1422.0,0.250966
1424.0,0.251706
1426.0,0.252498
1428.0,0.254287
1430.0,0.256419
1432.0,0.257484
1434.0,0.257112
1436.0,0.25689
1438.0,0.255908
1440.0,0.255513
1442.0,0.255376
1444.0,0.256065
1446.0,0.257705
1448.0,0.258668
1450.0,0.25804
1452.0,0.25736
1454.0,0.258369
1456.0,0.25934
1458.0,0.259641
1460.0,0.25995
1462.0,0.260243
1464.0,0.260639
1466.0,0.260449
1468.0,0.259242
1470.0,0.258858
1472.0,0.259843
1474.0,0.260933
1476.0,0.261576
1478.0,0.262396
1480.0,0.262341
1482.0,0.262119
1484.0,0.26236
1486.0,0.262624
1488.0,0.262981
1490.0,0.262814
1492.0,0.263418
1494.0,0.263958
1496.0,0.264073
1498.0,0.264727
1500.0,0.265101
1502.0,0.264556
1504.0,0.264283
1506.0,0.264464
1508.0,0.264559
1510.0,0.264813
1512.0,0.264854
1514.0,0.264568
1516.0,0.264717
1518.0,0.264755
1520.0,0.264842
1522.0,0.264923
1524.0,0.264552
1526.0,0.264851
1528.0,0.265145
1530.0,0.265101
1532.0,0.264963
1534.0,0.26489
1536.0,0.264746
1538.0,0.264665
1540.0,0.264333
1542.0,0.264068
1544.0,0.264003
1546.0,0.26418
1548.0,0.26454
1550.0,0.264475
1552.0,0.264442
1554.0,0.264478
1556.0,0.264487
1558.0,0.264733
1560.0,0.264531
1562.0,0.26429
1564.0,0.26433
1566.0,0.264129
1568.0,0.264078
1570.0,0.263876
1572.0,0.263847
1574.0,0.264035
1576.0,0.263748
1578.0,0.263905
1580.0,0.263894
1582.0,0.263636
1584.0,0.263843
1586.0,0.264213
1588.0,0.263858
1590.0,0.263357
1592.0,0.26339
1594.0,0.26339
1596.0,0.262976
1598.0,0.262882
1600.0,0.262944
1602.0,0.262435
1604.0,0.262123
1606.0,0.262834
1608.0,0.263433
1610.0,0.262996
1612.0,0.262292
1614.0,0.261463
1616.0,0.261642
1618.0,0.261712
1620.0,0.260909
1622.0,0.260623
1624.0,0.260684
1626.0,0.261207
1628.0,0.261814
1630.0,0.261955
1632.0,0.261881
1634.0,0.261504
1636.0,0.260996
1638.0,0.260614
1640.0,0.260199
1642.0,0.260599
1644.0,0.261108
1646.0,0.261
1648.0,0.260954
1650.0,0.261339
1652.0,0.261186
1654.0,0.260788
1656.0,0.261056
1658.0,0.261389
1660.0,0.261267
1662.0,0.260748
1664.0,0.260508
1666.0,0.260187
1668.0,0.260678
1670.0,0.26116
1672.0,0.260504
1674.0,0.260121
1676.0,0.260433
1678.0,0.26098
1680.0,0.261004
1682.0,0.260656
1684.0,0.260752
1686.0,0.260555
1688.0,0.260417
1690.0,0.260532
1692.0,0.260778
1694.0,0.261164
1696.0,0.260965
1698.0,0.261042
1700.0,0.261038
1702.0,0.260789
1704.0,0.26106
1706.0,0.261066
1708.0,0.261301
1710.0,0.261202
1712.0,0.26079
1714.0,0.260875
1716.0,0.260627
1718.0,0.26042
1720.0,0.260475
1722.0,0.260478
1724.0,0.260809
1726.0,0.260693
1728.0,0.260119
1730.0,0.260028
1732.0,0.260502
1734.0,0.26075
1736.0,0.260296
1738.0,0.26042
1740.0,0.260342
1742.0,0.26089
1744.0,0.261605
1746.0,0.261263
1748.0,0.260439
1750.0,0.259909
1752.0,0.259926
1754.0,0.260209
1756.0,0.258655
1758.0,0.258562
1760.0,0.260367
1762.0,0.260925
1764.0,0.261042
1766.0,0.260556
1768.0,0.26107
1770.0,0.260359
1772.0,0.259268
1774.0,0.259874
1776.0,0.260193
1778.0,0.259853
1780.0,0.258971
1782.0,0.259592
1784.0,0.260557
1786.0,0.260053
1788.0,0.260609
1790.0,0.260166
1792.0,0.258072
1794.0,0.257979
1796.0,0.260701
1798.0,0.261123
1800.0,0.260389
1802.0,0.253802
1804.0,0.254645
1806.0,0.256022
1808.0,0.256382
1810.0,0.25195
1812.0,0.257945
1814.0,0.288876
1816.0,0.307716
1818.0,0.299273
1820.0,0.255339
1822.0,0.246424
1824.0,0.262051
1826.0,0.242884
1828.0,0.247587
1830.0,0.289511
1832.0,0.363823
1834.0,0.0
1836.0,0.0
1838.0,0.0
1840.0,0.345652
1842.0,0.211774
1844.0,0.0
1846.0,0.095835
1848.0,0.537278
1850.0,1.0
1852.0,0.645163
1854.0,0.108882
1856.0,0.0420548
1858.0,0.0390317
1860.0,0.285754
1862.0,1.0
1864.0,0.548054
1866.0,0.156329
1868.0,0.0689931
1870.0,0.0279673
1872.0,0.0
1874.0,0.0
1876.0,0.0
1878.0,1.0
1880.0,0.804086
1882.0,0.632277
1884.0,0.282918
1886.0,0.199431
1888.0,0.240318
1890.0,0.28621
1892.0,0.215842
1894.0,0.199535
1896.0,0.206628
1898.0,0.241932
1900.0,0.183388
1902.0,0.230334
1904.0,0.305653
1906.0,0.312512
1908.0,0.298702
1910.0,0.657396
1912.0,1.0
1914.0,0.402277
1916.0,0.548254
1918.0,0.355072
1920.0,0.180518
1922.0,0.18794
1924.0,0.243761
1926.0,0.265109
1928.0,0.219417
1930.0,0.205465
1932.0,0.227115
1934.0,0.245431
1936.0,0.259511
1938.0,0.273803
1940.0,0.270027
1942.0,0.264346
1944.0,0.257102
1946.0,0.252437
1948.0,0.247483
1950.0,0.245539
1952.0,0.250473
1954.0,0.243557
1956.0,0.246149
1958.0,0.247324
1960.0,0.249961
1962.0,0.252507
1964.0,0.250445
1966.0,0.247562
1968.0,0.248175
1970.0,0.254644
1972.0,0.256915
1974.0,0.257065
1976.0,0.257703
1978.0,0.255923
1980.0,0.255596
1982.0,0.257327
1984.0,0.258124
1986.0,0.257797
1988.0,0.256491
1990.0,0.255017
1992.0,0.255883
1994.0,0.256742
1996.0,0.258543
1998.0,0.261853
2000.0,0.263413
2002.0,0.259888
2004.0,0.253297
2006.0,0.252736
2008.0,0.251819
2010.0,0.246964
2012.0,0.248995
2014.0,0.253501
2016.0,0.25415
2018.0,0.253499
2020.0,0.255611
2022.0,0.254635
2024.0,0.256994
2026.0,0.261968
2028.0,0.26345
2030.0,0.260776
2032.0,0.259173
2034.0,0.258723
2036.0,0.260605
2038.0,0.260481
2040.0,0.259772
2042.0,0.26238
2044.0,0.26491
2046.0,0.265201
2048.0,0.263644
2050.0,0.264675
2052.0,0.268269
2054.0,0.266698
2056.0,0.267279
2058.0,0.267136
2060.0,0.262632
2062.0,0.262337
2064.0,0.26402
2066.0,0.265781
2068.0,0.267179
2070.0,0.267038
2072.0,0.264053
2074.0,0.264457
2076.0,0.26522
2078.0,0.263996
2080.0,0.263733
2082.0,0.262074
2084.0,0.260475
2086.0,0.262038
2088.0,0.266288
2090.0,0.267049
2092.0,0.265653
2094.0,0.264737
2096.0,0.263973
2098.0,0.264178
2100.0,0.263436
2102.0,0.263976
2104.0,0.264951
2106.0,0.264454
2108.0,0.264117
2110.0,0.266794
2112.0,0.268329
2114.0,0.267764
2116.0,0.267393
2118.0,0.266911
2120.0,0.26707
2122.0,0.266122
2124.0,0.264617
2126.0,0.263403
2128.0,0.262995
2130.0,0.262734
2132.0,0.262903
2134.0,0.263651
2136.0,0.264732
2138.0,0.265762
2140.0,0.265982
2142.0,0.264445
2144.0,0.264324
2146.0,0.265655
2148.0,0.266302
2150.0,0.265037
2152.0,0.262843
2154.0,0.263636
2156.0,0.264038
2158.0,0.262526
2160.0,0.262317
2162.0,0.262
2164.0,0.261602
2166.0,0.261577
2168.0,0.261836
2170.0,0.262244
2172.0,0.260541
2174.0,0.256531
2176.0,0.255269
2178.0,0.257802
2180.0,0.261068
2182.0,0.260338
2184.0,0.257433
2186.0,0.25714
2188.0,0.256124
2190.0,0.25416
2192.0,0.253135
2194.0,0.252324
2196.0,0.252659
2198.0,0.252557
2200.0,0.253016
2202.0,0.253556
2204.0,0.252964
2206.0,0.251874
2208.0,0.251593
2210.0,0.251681
2212.0,0.252221
2214.0,0.251919
2216.0,0.251461
2218.0,0.251486
2220.0,0.250964
2222.0,0.251674
2224.0,0.251263
2226.0,0.250742
2228.0,0.249475
2230.0,0.250891
2232.0,0.249506
2234.0,0.246355
2236.0,0.247186
2238.0,0.251142
2240.0,0.251902
2242.0,0.2522
2244.0,0.251271
2246.0,0.254657
2248.0,0.256754
2250.0,0.253126
2252.0,0.248471
2254.0,0.246572
2256.0,0.247129
2258.0,0.250573
2260.0,0.253572
2262.0,0.253911
2264.0,0.251168
2266.0,0.249507
2268.0,0.255092
2270.0,0.257729
2272.0,0.253313
2274.0,0.252713
2276.0,0.253863
2278.0,0.2547
2280.0,0.253724
2282.0,0.25415
2284.0,0.253855
2286.0,0.253173
2288.0,0.251225
2290.0,0.248974
2292.0,0.25014
2294.0,0.248738
2296.0,0.245676
2298.0,0.245384
2300.0,0.245349
2302.0,0.247806
2304.0,0.247531
2306.0,0.245754
2308.0,0.246863
2310.0,0.248687
2312.0,0.247849
2314.0,0.248771
2316.0,0.249039
2318.0,0.248548
2320.0,0.246917
2322.0,0.247638
2324.0,0.247554
2326.0,0.245896
2328.0,0.245507
2330.0,0.241529
2332.0,0.239788
2334.0,0.246246
2336.0,0.248355
2338.0,0.24624
2340.0,0.247396
2342.0,0.254174
2344.0,0.259239
2346.0,0.252615
2348.0,0.244898
2350.0,0.240752
2352.0,0.245454
2354.0,0.250508
2356.0,0.248444
2358.0,0.251945
2360.0,0.252972
2362.0,0.249521
2364.0,0.247482
2366.0,0.244633
2368.0,0.243309
2370.0,0.243124
2372.0,0.242758
2374.0,0.240501
2376.0,0.237679
2378.0,0.241036
2380.0,0.246366
2382.0,0.24498
2384.0,0.251243
2386.0,0.261435
2388.0,0.252966
2390.0,0.241095
2392.0,0.239724
2394.0,0.246643
2396.0,0.247043
2398.0,0.246023
2400.0,0.244087
2402.0,0.246055
2404.0,0.254764
2406.0,0.257946
2408.0,0.264679
2410.0,0.263143
2412.0,0.238616
2414.0,0.219288
2416.0,0.223095
2418.0,0.236016
2420.0,0.24538
2422.0,0.254861
2424.0,0.255716
2426.0,0.25285
2428.0,0.250199
2430.0,0.255088
2432.0,0.270058
2434.0,0.26264
2436.0,0.2487
2438.0,0.234834
2440.0,0.228561
2442.0,0.236652
2444.0,0.24848
2446.0,0.270677
2448.0,0.246463
2450.0,0.225115
2452.0,0.230917
2454.0,0.229322
2456.0,0.224543
2458.0,0.245046
2460.0,0.258659
2462.0,0.252245
2464.0,0.260908
2466.0,0.292224
2468.0,0.282166
2470.0,0.243012
2472.0,0.246095
2474.0,0.248288
2476.0,0.257315
2478.0,0.249203
2480.0,0.181261
2482.0,0.161496
2484.0,0.183076
2486.0,0.211967
2488.0,0.147977
2490.0,0.260354
2492.0,0.475319
2494.0,0.196784
2496.0,0.251607
2498.0,0.492484
2500.0,0.287591