File: data/spectra_ascii/AsphaltTrockenVerschmutzung2___corthum00448.txt
Wavelength (nm),Reflectance
350.0,0.417654
352.0,0.418472
354.0,0.418444
356.0,0.418398
358.0,0.418721
360.0,0.419115
362.0,0.419958
364.0,0.419823
366.0,0.41985
368.0,0.420926
370.0,0.421003
372.0,0.420985
374.0,0.421032
376.0,0.421823
378.0,0.422886
380.0,0.423724
382.0,0.423781
384.0,0.424208
386.0,0.425021
388.0,0.425233
390.0,0.425385
392.0,0.425817
394.0,0.425853
396.0,0.426461
398.0,0.426936
400.0,0.427365
402.0,0.427739
404.0,0.428098
406.0,0.428472
408.0,0.428854
410.0,0.42917
412.0,0.429591
414.0,0.430092
416.0,0.430402
418.0,0.430951
420.0,0.431212
422.0,0.431646
424.0,0.432182
426.0,0.432624
428.0,0.432966
430.0,0.43358
432.0,0.434031
434.0,0.434446
436.0,0.434962
438.0,0.435347
440.0,0.435756
442.0,0.43631
444.0,0.436662
446.0,0.43712
448.0,0.437476
450.0,0.437868
452.0,0.438292
454.0,0.438705
456.0,0.439055
458.0,0.439406
460.0,0.439731
462.0,0.440005
464.0,0.440388
466.0,0.440761
468.0,0.441134
470.0,0.441499
472.0,0.441744
474.0,0.442115
476.0,0.442352
478.0,0.442698
480.0,0.443112
482.0,0.443652
484.0,0.443839
486.0,0.444214
488.0,0.444658
490.0,0.445021
492.0,0.445604
494.0,0.445973
496.0,0.446353
498.0,0.4469
500.0,0.4473
502.0,0.447688
504.0,0.448107
506.0,0.448427
508.0,0.448946
510.0,0.449454
512.0,0.449815
514.0,0.450269
516.0,0.450665
518.0,0.451171
520.0,0.451689
522.0,0.452186
524.0,0.452669
526.0,0.453013
528.0,0.453634
530.0,0.454172
532.0,0.454729
534.0,0.455234
536.0,0.455804
538.0,0.456454
540.0,0.457082
542.0,0.457764
544.0,0.458348
546.0,0.459027
548.0,0.459675
550.0,0.460419
552.0,0.461191
554.0,0.461955
556.0,0.462734
558.0,0.463546
560.0,0.464355
562.0,0.465095
564.0,0.465755
566.0,0.466454
568.0,0.467248
570.0,0.467976
572.0,0.468709
574.0,0.469433
576.0,0.470081
578.0,0.470811
580.0,0.471372
582.0,0.471996
584.0,0.472668
586.0,0.473233
588.0,0.473782
590.0,0.474454
592.0,0.475046
594.0,0.475489
596.0,0.476052
598.0,0.476558
600.0,0.477023
602.0,0.477409
604.0,0.477968
606.0,0.478465
608.0,0.478835
610.0,0.479312
612.0,0.479696
614.0,0.480122
616.0,0.48054
618.0,0.480999
620.0,0.481414
622.0,0.481897
624.0,0.482194
626.0,0.482676
628.0,0.483075
630.0,0.483348
632.0,0.483758
634.0,0.484235
636.0,0.484602
638.0,0.484982
640.0,0.485281
642.0,0.485715
644.0,0.486082
646.0,0.486438
648.0,0.486734
650.0,0.487303
652.0,0.487488
654.0,0.487765
656.0,0.488249
658.0,0.488524
660.0,0.488913
662.0,0.489227
664.0,0.48952
666.0,0.489836
668.0,0.490162
670.0,0.490453
672.0,0.490766
674.0,0.491052
676.0,0.491355
678.0,0.491758
680.0,0.491899
682.0,0.492247
684.0,0.49259
686.0,0.492852
688.0,0.493405
690.0,0.49351
692.0,0.493804
694.0,0.494235
696.0,0.494418
698.0,0.494647
700.0,0.494918
702.0,0.495275
704.0,0.495526
706.0,0.495735
708.0,0.495932
710.0,0.496189
712.0,0.496546
714.0,0.496841
716.0,0.49719
718.0,0.497623
720.0,0.497825
722.0,0.497964
724.0,0.498345
726.0,0.498672
728.0,0.498927
730.0,0.499278
732.0,0.499532
734.0,0.4997
736.0,0.500028
738.0,0.500447
740.0,0.500644
742.0,0.501001
744.0,0.501253
746.0,0.501437
748.0,0.501783
750.0,0.502129
752.0,0.502532
754.0,0.502781
756.0,0.503108
758.0,0.503447
760.0,0.503746
762.0,0.504437
764.0,0.504533
766.0,0.504766
768.0,0.50506
770.0,0.505146
772.0,0.505426
774.0,0.505666
776.0,0.506026
778.0,0.506333
780.0,0.506507
782.0,0.506802
784.0,0.507079
786.0,0.507324
788.0,0.507537
790.0,0.507885
792.0,0.508079
794.0,0.508301
796.0,0.508582
798.0,0.508825
800.0,0.509091
802.0,0.509342
804.0,0.509462
806.0,0.509746
808.0,0.510031
810.0,0.510266
812.0,0.510583
814.0,0.510764
816.0,0.511067
818.0,0.511291
820.0,0.511491
822.0,0.511675
824.0,0.511803
826.0,0.512054
828.0,0.512358
830.0,0.512447
832.0,0.512649
834.0,0.512771
836.0,0.512888
838.0,0.513148
840.0,0.513307
842.0,0.513461
844.0,0.513607
846.0,0.513908
848.0,0.514016
850.0,0.514061
852.0,0.514355
854.0,0.514635
856.0,0.514707
858.0,0.514749
860.0,0.515138
862.0,0.515121
864.0,0.515291
866.0,0.515425
868.0,0.515811
870.0,0.515652
872.0,0.515964
874.0,0.516095
876.0,0.516249
878.0,0.516193
880.0,0.516565
882.0,0.516719
884.0,0.516807
886.0,0.517196
888.0,0.517494
890.0,0.517555
892.0,0.517581
894.0,0.518162
896.0,0.517992
898.0,0.518191
900.0,0.518136
902.0,0.518426
904.0,0.51884
906.0,0.518373
908.0,0.518948
910.0,0.519706
912.0,0.519115
914.0,0.519141
916.0,0.519796
918.0,0.5195
920.0,0.519483
922.0,0.520178
924.0,0.520074
926.0,0.520386
928.0,0.520201
930.0,0.519664
932.0,0.519066
934.0,0.519236
936.0,0.519682
938.0,0.520121
940.0,0.521044
942.0,0.520149
944.0,0.520128
946.0,0.521196
948.0,0.520789
950.0,0.52146
952.0,0.52201
954.0,0.521593
956.0,0.522035
958.0,0.520946
960.0,0.521447
962.0,0.522298
964.0,0.521819
966.0,0.522683
968.0,0.523512
970.0,0.522756
972.0,0.52236
974.0,0.522744
976.0,0.522677
978.0,0.521936
980.0,0.52266
982.0,0.523463
984.0,0.523645
986.0,0.523935
988.0,0.523474
990.0,0.52367
992.0,0.523385
994.0,0.52445
996.0,0.524477
998.0,0.52436
1000.0,0.523459
1002.0,0.492873
1004.0,0.492504
1006.0,0.492223
1008.0,0.492393
1010.0,0.492492
1012.0,0.49218
1014.0,0.492529
1016.0,0.492744
1018.0,0.493652
1020.0,0.493553
1022.0,0.493296
1024.0,0.493271
1026.0,0.493076
1028.0,0.493117
1030.0,0.493867
1032.0,0.493942
1034.0,0.49355
1036.0,0.492898
1038.0,0.493103
1040.0,0.494289
1042.0,0.494507
1044.0,0.494108
1046.0,0.493313
1048.0,0.493269
1050.0,0.493524
1052.0,0.493914
1054.0,0.494815
1056.0,0.495208
1058.0,0.494506
1060.0,0.494021
1062.0,0.494277
1064.0,0.494698
1066.0,0.494897
1068.0,0.494054
1070.0,0.493477
1072.0,0.494418
1074.0,0.494812
1076.0,0.494541
1078.0,0.494486
1080.0,0.49464
1082.0,0.494889
1084.0,0.49518
1086.0,0.494811
1088.0,0.495055
1090.0,0.495796
1092.0,0.49614
1094.0,0.495951
1096.0,0.496178
1098.0,0.496223
1100.0,0.496038
1102.0,0.495916
1104.0,0.495946
1106.0,0.496323
1108.0,0.496868
1110.0,0.497728
1112.0,0.498721
1114.0,0.499426
1116.0,0.500037
1118.0,0.500405
1120.0,0.498801
1122.0,0.498619
1124.0,0.498643
1126.0,0.499489
1128.0,0.498358
1130.0,0.496817
1132.0,0.49587
1134.0,0.495536
1136.0,0.495667
1138.0,0.496123
1140.0,0.496447
1142.0,0.497214
1144.0,0.498159
1146.0,0.498011
1148.0,0.49746
1150.0,0.496721
1152.0,0.495764
1154.0,0.495703
1156.0,0.496688
1158.0,0.496972
1160.0,0.496695
1162.0,0.496071
1164.0,0.496049
1166.0,0.49704
1168.0,0.497233
1170.0,0.497246
1172.0,0.497806
1174.0,0.498134
1176.0,0.497964
1178.0,0.497887
1180.0,0.498077
1182.0,0.4981
1184.0,0.498218
1186.0,0.498935
1188.0,0.49904
1190.0,0.499082
1192.0,0.499476
1194.0,0.499329
1196.0,0.499348
1198.0,0.4996
1200.0,0.499242
1202.0,0.498633
1204.0,0.498678
1206.0,0.499104
1208.0,0.498959
1210.0,0.498933
1212.0,0.49914
1214.0,0.499545
1216.0,0.499961
1218.0,0.499796
1220.0,0.49951
1222.0,0.499498
1224.0,0.499348
1226.0,0.499525
1228.0,0.500189
1230.0,0.500568
1232.0,0.500394
1234.0,0.499746
1236.0,0.499592
1238.0,0.499605
1240.0,0.499292
1242.0,0.499233
1244.0,0.499863
1246.0,0.500446
1248.0,0.500487
1250.0,0.500775
1252.0,0.501152
1254.0,0.501419
1256.0,0.50162
1258.0,0.501537
1260.0,0.501605
1262.0,0.501776
1264.0,0.501648
1266.0,0.501167
1268.0,0.500689
1270.0,0.500044
1272.0,0.499635
1274.0,0.499507
1276.0,0.499762
1278.0,0.500135
1280.0,0.500412
1282.0,0.500218
1284.0,0.500259
1286.0,0.500487
1288.0,0.500977
1290.0,0.501026
1292.0,0.50066
1294.0,0.501248
1296.0,0.501845
1298.0,0.501462
1300.0,0.501372
1302.0,0.501339
1304.0,0.501572
1306.0,0.502011
1308.0,0.502241
1310.0,0.502387
1312.0,0.502644
1314.0,0.502737
1316.0,0.50278
1318.0,0.502621
1320.0,0.502442
1322.0,0.502613
1324.0,0.503357
1326.0,0.503976
1328.0,0.504425
1330.0,0.504434
1332.0,0.5037
1334.0,0.503723
1336.0,0.50426
1338.0,0.505144
1340.0,0.505749
1342.0,0.506919
1344.0,0.509559
1346.0,0.511627
1348.0,0.51275
1350.0,0.512816
1352.0,0.514464
1354.0,0.525665
1356.0,0.543895
1358.0,0.574938
1360.0,0.618726
1362.0,0.761642
1364.0,1.0
1366.0,0.68186
1368.0,0.456518
1370.0,0.680909
1372.0,1.0
1374.0,1.0
1376.0,0.870282
1378.0,0.646635
1380.0,0.685715
1382.0,0.800413
1384.0,0.755388
1386.0,0.68279
1388.0,0.591004
1390.0,0.566493
1392.0,0.550981
1394.0,0.541688
1396.0,0.536209
1398.0,0.533474
1400.0,0.552499
1402.0,0.557957
1404.0,0.52848
1406.0,0.503924
1408.0,0.511747
1410.0,0.51967
1412.0,0.510223
1414.0,0.505792
1416.0,0.506043
1418.0,0.507577
1420.0,0.50937
1422.0,0.508435
1424.0,0.506067
1426.0,0.503171
1428.0,0.503523
1430.0,0.507052
1432.0,0.510844
1434.0,0.511651
1436.0,0.511208
1438.0,0.509337
1440.0,0.508851
1442.0,0.508158
1444.0,0.507173
1446.0,0.507319
1448.0,0.508437
1450.0,0.508439
1452.0,0.508039
1454.0,0.50877
1456.0,0.508827
1458.0,0.50959
1460.0,0.510967
1462.0,0.511861
1464.0,0.512265
1466.0,0.511652
1468.0,0.510586
1470.0,0.510762
1472.0,0.511163
1474.0,0.510442
1476.0,0.5109
1478.0,0.511917
1480.0,0.511519
1482.0,0.511696
1484.0,0.511857
1486.0,0.511256
1488.0,0.512074
1490.0,0.512405
1492.0,0.512612
1494.0,0.512707
1496.0,0.513027
1498.0,0.51402
1500.0,0.514422
1502.0,0.513985
1504.0,0.513348
1506.0,0.513652
1508.0,0.513787
1510.0,0.513827
1512.0,0.513982
1514.0,0.514081
1516.0,0.514562
1518.0,0.514854
1520.0,0.514997
1522.0,0.515207
1524.0,0.515017
1526.0,0.515657
1528.0,0.516021
1530.0,0.516053
1532.0,0.515871
1534.0,0.515605
1536.0,0.51536
1538.0,0.515659
1540.0,0.515722
1542.0,0.515863
1544.0,0.51565
1546.0,0.515548
1548.0,0.516193
1550.0,0.51635
1552.0,0.516566
1554.0,0.516918
1556.0,0.516759
1558.0,0.517178
1560.0,0.517517
1562.0,0.517239
1564.0,0.517096
1566.0,0.517389
1568.0,0.517639
1570.0,0.517591
1572.0,0.517741
1574.0,0.518006
1576.0,0.517823
1578.0,0.518104
1580.0,0.518114
1582.0,0.517726
1584.0,0.51832
1586.0,0.519099
1588.0,0.518668
1590.0,0.517916
1592.0,0.517615
1594.0,0.517878
1596.0,0.518063
1598.0,0.518491
1600.0,0.518854
1602.0,0.518175
1604.0,0.51742
1606.0,0.517687
1608.0,0.518788
1610.0,0.519165
1612.0,0.518664
1614.0,0.517443
1616.0,0.517406
1618.0,0.517925
1620.0,0.517329
1622.0,0.517082
1624.0,0.517532
1626.0,0.5187
1628.0,0.519533
1630.0,0.519921
1632.0,0.519752
1634.0,0.51956
1636.0,0.51905
1638.0,0.518505
1640.0,0.518156
1642.0,0.518341
1644.0,0.5188
1646.0,0.518805
1648.0,0.519302
1650.0,0.519533
1652.0,0.519214
1654.0,0.518995
1656.0,0.518679
1658.0,0.51938
1660.0,0.519726
1662.0,0.519284
1664.0,0.519282
1666.0,0.519004
1668.0,0.519984
1670.0,0.520806
1672.0,0.519695
1674.0,0.519261
1676.0,0.520418
1678.0,0.521946
1680.0,0.521928
1682.0,0.52065
1684.0,0.521251
1686.0,0.521779
1688.0,0.521956
1690.0,0.522025
1692.0,0.521439
1694.0,0.521489
1696.0,0.521844
1698.0,0.522611
1700.0,0.52323
1702.0,0.522673
1704.0,0.523218
1706.0,0.523705
1708.0,0.523695
1710.0,0.523115
1712.0,0.522514
1714.0,0.522833
1716.0,0.523245
1718.0,0.522303
1720.0,0.522483
1722.0,0.522718
1724.0,0.52306
1726.0,0.523572
1728.0,0.523109
1730.0,0.522979
1732.0,0.523308
1734.0,0.523866
1736.0,0.523205
1738.0,0.5239
1740.0,0.525346
1742.0,0.526914
1744.0,0.526408
1746.0,0.525651
1748.0,0.525582
1750.0,0.525458
1752.0,0.526185
1754.0,0.52662
1756.0,0.523551
1758.0,0.52379
1760.0,0.526807
1762.0,0.527756
1764.0,0.528853
1766.0,0.52725
1768.0,0.527092
1770.0,0.52616
1772.0,0.524527
1774.0,0.525624
1776.0,0.526358
1778.0,0.5264
1780.0,0.525726
1782.0,0.526411
1784.0,0.527566
1786.0,0.525945
1788.0,0.526046
1790.0,0.526128
1792.0,0.524419
1794.0,0.526231
1796.0,0.529103
1798.0,0.525755
1800.0,0.525633
1802.0,0.495765
1804.0,0.492749
1806.0,0.50156
1808.0,0.512514
1810.0,0.503948
1812.0,0.500244
1814.0,0.543984
1816.0,0.560767
1818.0,0.534048
1820.0,0.47162
1822.0,0.482353
1824.0,0.45936
1826.0,0.420407
1828.0,0.45984
1830.0,0.632435
1832.0,0.617623
1834.0,0.0
1836.0,0.0
1838.0,0.0
1840.0,0.0
1842.0,0.0
1844.0,0.159075
1846.0,0.152703
1848.0,0.628734
1850.0,1.0
1852.0,1.0
1854.0,0.546592
1856.0,0.66141
1858.0,0.376662
1860.0,0.484968
1862.0,1.0
1864.0,0.660255
1866.0,0.348451
1868.0,0.329973
1870.0,0.551495
1872.0,0.931258
1874.0,0.0
1876.0,0.0
1878.0,1.0
1880.0,0.904642
1882.0,0.73702
1884.0,0.331614
1886.0,0.375223
1888.0,0.475902
1890.0,0.549418
1892.0,0.437112
1894.0,0.387038
1896.0,0.483131
1898.0,0.491186
1900.0,0.307214
1902.0,0.342314
1904.0,0.457602
1906.0,0.299156
1908.0,0.142473
1910.0,0.739455
1912.0,1.0
1914.0,0.533512
1916.0,0.797489
1918.0,0.673768
1920.0,0.447462
1922.0,0.404739
1924.0,0.429991
1926.0,0.487259
1928.0,0.46135
1930.0,0.465166
1932.0,0.516834
1934.0,0.511204
1936.0,0.501929
1938.0,0.524129
1940.0,0.522441
1942.0,0.528725
1944.0,0.538762
1946.0,0.531393
1948.0,0.515317
1950.0,0.492376
1952.0,0.491215
1954.0,0.490857
1956.0,0.505743
1958.0,0.49378
1960.0,0.48319
1962.0,0.501041
1964.0,0.505313
1966.0,0.501106
1968.0,0.5006
1970.0,0.502534
1972.0,0.498969
1974.0,0.500017
1976.0,0.5028
1978.0,0.49915
1980.0,0.498214
1982.0,0.502882
1984.0,0.50529
1986.0,0.501933
1988.0,0.497314
1990.0,0.496276
1992.0,0.498715
1994.0,0.500752
1996.0,0.503105
1998.0,0.508243
2000.0,0.511504
2002.0,0.509173
2004.0,0.509468
2006.0,0.509043
2008.0,0.494414
2010.0,0.491028
2012.0,0.496089
2014.0,0.500474
2016.0,0.49556
2018.0,0.490713
2020.0,0.496352
2022.0,0.494551
2024.0,0.499363
2026.0,0.505172
2028.0,0.504288
2030.0,0.501292
2032.0,0.500492
2034.0,0.500416
2036.0,0.501531
2038.0,0.50015
2040.0,0.498991
2042.0,0.503023
2044.0,0.5058
2046.0,0.50856
2048.0,0.50802
2050.0,0.506025
2052.0,0.506041
2054.0,0.510357
2056.0,0.513103
2058.0,0.509832
2060.0,0.505126
2062.0,0.505075
2064.0,0.50682
2066.0,0.508016
2068.0,0.50952
2070.0,0.508662
2072.0,0.507018
2074.0,0.507826
2076.0,0.505788
2078.0,0.502629
2080.0,0.502426
2082.0,0.501678
2084.0,0.499353
2086.0,0.502965
2088.0,0.512173
2090.0,0.513734
2092.0,0.51183
2094.0,0.512413
2096.0,0.511383
2098.0,0.509605
2100.0,0.508727
2102.0,0.509268
2104.0,0.509359
2106.0,0.509306
2108.0,0.508233
2110.0,0.510854
2112.0,0.511049
2114.0,0.510633
2116.0,0.510775
2118.0,0.509952
2120.0,0.510671
2122.0,0.50996
2124.0,0.508997
2126.0,0.508964
2128.0,0.508135
2130.0,0.506691
2132.0,0.506322
2134.0,0.508508
2136.0,0.510816
2138.0,0.510773
2140.0,0.508857
2142.0,0.509114
2144.0,0.511532
2146.0,0.512773
2148.0,0.51158
2150.0,0.509217
2152.0,0.506153
2154.0,0.508109
2156.0,0.510608
2158.0,0.508665
2160.0,0.508874
2162.0,0.511197
2164.0,0.51204
2166.0,0.510561
2168.0,0.511155
2170.0,0.510625
2172.0,0.507709
2174.0,0.504094
2176.0,0.504117
2178.0,0.507539
2180.0,0.511734
2182.0,0.513746
2184.0,0.510866
2186.0,0.506968
2188.0,0.504477
2190.0,0.503373
2192.0,0.505389
2194.0,0.505099
2196.0,0.502055
2198.0,0.502948
2200.0,0.50607
2202.0,0.506957
2204.0,0.504341
2206.0,0.503352
2208.0,0.506799
2210.0,0.509406
2212.0,0.508762
2214.0,0.505729
2216.0,0.505624
2218.0,0.507783
2220.0,0.507201
2222.0,0.50919
2224.0,0.50902
2226.0,0.505656
2228.0,0.503575
2230.0,0.505863
2232.0,0.50371
2234.0,0.49949
2236.0,0.500694
2238.0,0.503762
2240.0,0.50622
2242.0,0.510304
2244.0,0.508775
2246.0,0.510983
2248.0,0.512701
2250.0,0.509504
2252.0,0.504447
2254.0,0.499514
2256.0,0.498881
2258.0,0.505031
2260.0,0.509295
2262.0,0.512133
2264.0,0.508691
2266.0,0.505945
2268.0,0.511332
2270.0,0.510762
2272.0,0.502706
2274.0,0.504165
2276.0,0.506635
2278.0,0.505426
2280.0,0.507615
2282.0,0.511931
2284.0,0.511262
2286.0,0.505971
2288.0,0.501001
2290.0,0.505331
2292.0,0.512521
2294.0,0.511313
2296.0,0.505183
2298.0,0.500149
2300.0,0.496774
2302.0,0.497239
2304.0,0.495252
2306.0,0.498715
2308.0,0.505026
2310.0,0.508936
2312.0,0.508019
2314.0,0.507902
2316.0,0.506347
2318.0,0.509403
2320.0,0.512757
2322.0,0.511807
2324.0,0.505971
2326.0,0.503041
2328.0,0.508124
2330.0,0.505236
2332.0,0.498177
2334.0,0.505586
2336.0,0.514835
2338.0,0.511153
2340.0,0.50627
2342.0,0.515839
2344.0,0.528447
2346.0,0.522892
2348.0,0.506462
2350.0,0.493454
2352.0,0.503303
2354.0,0.513027
2356.0,0.51078
2358.0,0.514507
2360.0,0.513292
2362.0,0.51553
2364.0,0.518389
2366.0,0.508742
2368.0,0.499965
2370.0,0.494874
2372.0,0.492444
2374.0,0.49627
2376.0,0.500072
2378.0,0.496573
2380.0,0.496725
2382.0,0.499099
2384.0,0.511418
2386.0,0.537069
2388.0,0.535316
2390.0,0.509487
2392.0,0.505098
2394.0,0.513751
2396.0,0.510819
2398.0,0.511197
2400.0,0.512402
2402.0,0.520992
2404.0,0.516517
2406.0,0.505691
2408.0,0.530693
2410.0,0.526215
2412.0,0.481259
2414.0,0.460366
2416.0,0.466894
2418.0,0.496415
2420.0,0.522039
2422.0,0.526861
2424.0,0.530914
2426.0,0.524336
2428.0,0.524202
2430.0,0.523175
2432.0,0.532441
2434.0,0.521537
2436.0,0.496379
2438.0,0.491237
2440.0,0.500625
2442.0,0.501331
2444.0,0.526776
2446.0,0.610199
2448.0,0.571561
2450.0,0.482843
2452.0,0.465466
2454.0,0.458372
2456.0,0.478315
2458.0,0.532405
2460.0,0.545607
2462.0,0.488067
2464.0,0.483192
2466.0,0.534107
2468.0,0.555128
2470.0,0.530453
2472.0,0.504051
2474.0,0.535494
2476.0,0.567944
2478.0,0.595928
2480.0,0.526639
2482.0,0.479341
2484.0,0.605786
2486.0,0.582069
2488.0,0.445024
2490.0,0.623648
2492.0,0.751263
2494.0,0.363081
2496.0,0.659967
2498.0,1.0
2500.0,0.568577