File: data/spectra_ascii/AsphaltTrockenVerschmutzung1___corthum00397.txt
Wavelength (nm),Reflectance
350.0,0.0591848
352.0,0.0591427
354.0,0.0587318
356.0,0.0595834
358.0,0.0594738
360.0,0.0608911
362.0,0.0609767
364.0,0.0608383
366.0,0.061728
368.0,0.0619269
370.0,0.0625163
372.0,0.0632711
374.0,0.0637938
376.0,0.0648124
378.0,0.0649384
380.0,0.0655547
382.0,0.0661603
384.0,0.0668931
386.0,0.0673746
388.0,0.0683277
390.0,0.0687545
392.0,0.0691275
394.0,0.0695069
396.0,0.070077
398.0,0.0703398
400.0,0.0710671
402.0,0.0715635
404.0,0.0719159
406.0,0.0724893
408.0,0.0728913
410.0,0.0734621
412.0,0.0738659
414.0,0.0743778
416.0,0.0749606
418.0,0.0754872
420.0,0.0760299
422.0,0.0765087
424.0,0.0772003
426.0,0.0777219
428.0,0.0782946
430.0,0.078839
432.0,0.0794595
434.0,0.0799639
436.0,0.0805486
438.0,0.0810725
440.0,0.081656
442.0,0.0822162
444.0,0.0827354
446.0,0.083231
448.0,0.0837783
450.0,0.0843174
452.0,0.0847417
454.0,0.0853768
456.0,0.0857456
458.0,0.0862589
460.0,0.0867615
462.0,0.0872781
464.0,0.0876884
466.0,0.088099
468.0,0.0885698
470.0,0.0890447
472.0,0.0894584
474.0,0.0899894
476.0,0.0903915
478.0,0.0908698
480.0,0.0914456
482.0,0.0920121
484.0,0.092507
486.0,0.0931168
488.0,0.0936912
490.0,0.0942396
492.0,0.0948692
494.0,0.0954249
496.0,0.0959744
498.0,0.0966024
500.0,0.0972824
502.0,0.0978284
504.0,0.0984758
506.0,0.0991094
508.0,0.0998189
510.0,0.10048
512.0,0.101105
514.0,0.10184
516.0,0.102545
518.0,0.103324
520.0,0.103978
522.0,0.104727
524.0,0.105452
526.0,0.106225
528.0,0.107009
530.0,0.107831
532.0,0.108694
534.0,0.109618
536.0,0.110507
538.0,0.111487
540.0,0.112545
542.0,0.113577
544.0,0.114618
546.0,0.115711
548.0,0.116821
550.0,0.117981
552.0,0.119218
554.0,0.12048
556.0,0.12176
558.0,0.12307
560.0,0.124372
562.0,0.125611
564.0,0.126936
566.0,0.128161
568.0,0.129463
570.0,0.130754
572.0,0.131964
574.0,0.133263
576.0,0.134425
578.0,0.135611
580.0,0.136806
582.0,0.137924
584.0,0.139033
586.0,0.140107
588.0,0.141244
590.0,0.142327
592.0,0.143267
594.0,0.144181
596.0,0.145165
598.0,0.146019
600.0,0.146866
602.0,0.147751
604.0,0.148628
606.0,0.149518
608.0,0.150366
610.0,0.151187
612.0,0.152006
614.0,0.152819
616.0,0.153676
618.0,0.154464
620.0,0.155158
622.0,0.156006
624.0,0.15677
626.0,0.157545
628.0,0.158323
630.0,0.159135
632.0,0.159885
634.0,0.160594
636.0,0.161406
638.0,0.162185
640.0,0.162968
642.0,0.163688
644.0,0.164427
646.0,0.165185
648.0,0.165984
650.0,0.166756
652.0,0.167444
654.0,0.168155
656.0,0.168958
658.0,0.169741
660.0,0.170373
662.0,0.17113
664.0,0.171867
666.0,0.17255
668.0,0.173293
670.0,0.174058
672.0,0.174765
674.0,0.175405
676.0,0.176245
678.0,0.176997
680.0,0.17772
682.0,0.178398
684.0,0.179087
686.0,0.179839
688.0,0.18074
690.0,0.181412
692.0,0.18207
694.0,0.182803
696.0,0.183554
698.0,0.184204
700.0,0.184926
702.0,0.18562
704.0,0.18633
706.0,0.187056
708.0,0.187766
710.0,0.188449
712.0,0.189144
714.0,0.189905
716.0,0.190748
718.0,0.191648
720.0,0.192365
722.0,0.193047
724.0,0.193796
726.0,0.194625
728.0,0.195389
730.0,0.19609
732.0,0.196838
734.0,0.197516
736.0,0.198327
738.0,0.199051
740.0,0.199825
742.0,0.200543
744.0,0.201333
746.0,0.202109
748.0,0.202891
750.0,0.203741
752.0,0.204502
754.0,0.205344
756.0,0.20609
758.0,0.207018
760.0,0.207601
762.0,0.208914
764.0,0.209821
766.0,0.210418
768.0,0.21098
770.0,0.211633
772.0,0.212393
774.0,0.213146
776.0,0.213834
778.0,0.214609
780.0,0.215262
782.0,0.216101
784.0,0.216872
786.0,0.217623
788.0,0.218367
790.0,0.21918
792.0,0.219928
794.0,0.220616
796.0,0.221428
798.0,0.22218
800.0,0.222828
802.0,0.22359
804.0,0.224303
806.0,0.225012
808.0,0.225707
810.0,0.226468
812.0,0.227323
814.0,0.228061
816.0,0.228839
818.0,0.229615
820.0,0.230234
822.0,0.23089
824.0,0.231537
826.0,0.232165
828.0,0.232965
830.0,0.233589
832.0,0.234253
834.0,0.234857
836.0,0.235606
838.0,0.236191
840.0,0.236778
842.0,0.23739
844.0,0.237974
846.0,0.23874
848.0,0.239464
850.0,0.239996
852.0,0.24062
854.0,0.241369
856.0,0.241963
858.0,0.24253
860.0,0.243211
862.0,0.243878
864.0,0.244333
866.0,0.245062
868.0,0.245596
870.0,0.246241
872.0,0.246857
874.0,0.24754
876.0,0.248125
878.0,0.248758
880.0,0.249397
882.0,0.249916
884.0,0.250589
886.0,0.251314
888.0,0.251715
890.0,0.252379
892.0,0.2531
894.0,0.253671
896.0,0.2543
898.0,0.254788
900.0,0.255817
902.0,0.256102
904.0,0.256734
906.0,0.25729
908.0,0.257887
910.0,0.258493
912.0,0.259104
914.0,0.259623
916.0,0.260093
918.0,0.260791
920.0,0.261293
922.0,0.262086
924.0,0.262641
926.0,0.262784
928.0,0.263661
930.0,0.263288
932.0,0.263427
934.0,0.263427
936.0,0.264157
938.0,0.265838
940.0,0.26566
942.0,0.266313
944.0,0.265957
946.0,0.267099
948.0,0.267675
950.0,0.268431
952.0,0.26822
954.0,0.269666
956.0,0.269743
958.0,0.270552
960.0,0.271065
962.0,0.271597
964.0,0.273243
966.0,0.273278
968.0,0.273674
970.0,0.274313
972.0,0.274781
974.0,0.274976
976.0,0.275504
978.0,0.276416
980.0,0.276409
982.0,0.27762
984.0,0.277221
986.0,0.277546
988.0,0.277985
990.0,0.278048
992.0,0.279197
994.0,0.278698
996.0,0.278439
998.0,0.279506
1000.0,0.280114
1002.0,0.285343
1004.0,0.286288
1006.0,0.287088
1008.0,0.28713
1010.0,0.287181
1012.0,0.288204
1014.0,0.288738
1016.0,0.288615
1018.0,0.289022
1020.0,0.289355
1022.0,0.289592
1024.0,0.29002
1026.0,0.290536
1028.0,0.290639
1030.0,0.290601
1032.0,0.291
1034.0,0.291251
1036.0,0.291254
1038.0,0.29188
1040.0,0.292262
1042.0,0.292486
1044.0,0.293084
1046.0,0.293223
1048.0,0.293827
1050.0,0.294065
1052.0,0.294636
1054.0,0.295165
1056.0,0.29468
1058.0,0.294526
1060.0,0.29541
1062.0,0.295786
1064.0,0.295948
1066.0,0.296453
1068.0,0.297364
1070.0,0.297622
1072.0,0.297516
1074.0,0.297685
1076.0,0.297657
1078.0,0.298012
1080.0,0.298334
1082.0,0.299093
1084.0,0.299089
1086.0,0.299249
1088.0,0.299823
1090.0,0.299919
1092.0,0.300631
1094.0,0.300841
1096.0,0.301034
1098.0,0.30081
1100.0,0.301096
1102.0,0.301184
1104.0,0.301553
1106.0,0.301873
1108.0,0.301715
1110.0,0.302388
1112.0,0.30278
1114.0,0.303302
1116.0,0.303353
1118.0,0.303644
1120.0,0.303743
1122.0,0.304104
1124.0,0.304659
1126.0,0.304099
1128.0,0.303096
1130.0,0.303737
1132.0,0.304663
1134.0,0.304037
1136.0,0.304585
1138.0,0.305995
1140.0,0.30662
1142.0,0.306954
1144.0,0.307558
1146.0,0.307531
1148.0,0.307312
1150.0,0.307603
1152.0,0.308615
1154.0,0.309313
1156.0,0.30943
1158.0,0.309234
1160.0,0.309362
1162.0,0.309914
1164.0,0.310149
1166.0,0.310084
1168.0,0.310085
1170.0,0.310158
1172.0,0.310525
1174.0,0.311048
1176.0,0.31138
1178.0,0.311396
1180.0,0.311517
1182.0,0.311857
1184.0,0.312127
1186.0,0.312147
1188.0,0.312252
1190.0,0.312316
1192.0,0.312583
1194.0,0.312971
1196.0,0.313285
1198.0,0.313518
1200.0,0.313758
1202.0,0.3137
1204.0,0.313681
1206.0,0.314093
1208.0,0.314414
1210.0,0.314439
1212.0,0.314402
1214.0,0.314819
1216.0,0.31486
1218.0,0.314555
1220.0,0.314655
1222.0,0.314883
1224.0,0.315004
1226.0,0.315179
1228.0,0.315403
1230.0,0.315665
1232.0,0.315758
1234.0,0.315854
1236.0,0.315892
1238.0,0.315656
1240.0,0.3156
1242.0,0.315828
1244.0,0.315749
1246.0,0.315873
1248.0,0.316294
1250.0,0.316371
1252.0,0.316448
1254.0,0.316358
1256.0,0.316306
1258.0,0.316308
1260.0,0.316321
1262.0,0.316555
1264.0,0.31696
1266.0,0.317191
1268.0,0.317475
1270.0,0.317432
1272.0,0.317456
1274.0,0.317595
1276.0,0.318094
1278.0,0.318229
1280.0,0.318053
1282.0,0.318323
1284.0,0.318468
1286.0,0.318592
1288.0,0.319002
1290.0,0.319139
1292.0,0.31916
1294.0,0.319331
1296.0,0.319691
1298.0,0.31968
1300.0,0.31979
1302.0,0.32027
1304.0,0.320473
1306.0,0.320311
1308.0,0.32027
1310.0,0.320479
1312.0,0.320645
1314.0,0.320899
1316.0,0.321072
1318.0,0.321139
1320.0,0.320918
1322.0,0.320988
1324.0,0.321182
1326.0,0.321329
1328.0,0.321467
1330.0,0.321884
1332.0,0.322122
1334.0,0.321982
1336.0,0.321939
1338.0,0.322213
1340.0,0.323395
1342.0,0.32379
1344.0,0.323962
1346.0,0.323771
1348.0,0.322471
1350.0,0.320847
1352.0,0.319479
1354.0,0.318213
1356.0,0.328296
1358.0,0.347626
1360.0,0.36359
1362.0,0.414824
1364.0,0.360903
1366.0,0.188577
1368.0,0.192998
1370.0,0.239671
1372.0,0.344259
1374.0,0.355579
1376.0,0.350038
1378.0,0.300784
1380.0,0.261081
1382.0,0.223555
1384.0,0.23491
1386.0,0.241732
1388.0,0.241052
1390.0,0.276906
1392.0,0.293972
1394.0,0.271133
1396.0,0.279206
1398.0,0.296683
1400.0,0.288322
1402.0,0.29316
1404.0,0.300275
1406.0,0.308674
1408.0,0.310769
1410.0,0.31179
1412.0,0.312138
1414.0,0.312922
1416.0,0.315687
1418.0,0.315917
1420.0,0.316075
1422.0,0.316999
1424.0,0.316999
1426.0,0.317159
1428.0,0.318515
1430.0,0.320542
1432.0,0.320876
1434.0,0.319996
1436.0,0.3193
1438.0,0.319392
1440.0,0.318724
1442.0,0.317789
1444.0,0.318484
1446.0,0.319895
1448.0,0.319813
1450.0,0.319384
1452.0,0.320265
1454.0,0.320569
1456.0,0.32121
1458.0,0.321778
1460.0,0.321428
1462.0,0.320604
1464.0,0.320731
1466.0,0.321346
1468.0,0.322044
1470.0,0.322465
1472.0,0.322299
1474.0,0.322548
1476.0,0.322548
1478.0,0.322739
1480.0,0.323069
1482.0,0.323995
1484.0,0.324572
1486.0,0.324503
1488.0,0.324713
1490.0,0.324778
1492.0,0.325087
1494.0,0.324877
1496.0,0.32451
1498.0,0.325148
1500.0,0.325527
1502.0,0.325035
1504.0,0.325036
1506.0,0.325613
1508.0,0.325803
1510.0,0.325826
1512.0,0.32613
1514.0,0.326184
1516.0,0.326131
1518.0,0.326333
1520.0,0.326452
1522.0,0.32646
1524.0,0.326851
1526.0,0.327493
1528.0,0.327405
1530.0,0.327035
1532.0,0.327112
1534.0,0.327519
1536.0,0.327655
1538.0,0.327837
1540.0,0.32812
1542.0,0.328349
1544.0,0.328235
1546.0,0.328113
1548.0,0.327906
1550.0,0.327933
1552.0,0.327996
1554.0,0.32783
1556.0,0.327404
1558.0,0.327644
1560.0,0.328212
1562.0,0.328811
1564.0,0.328874
1566.0,0.328118
1568.0,0.32789
1570.0,0.328109
1572.0,0.328094
1574.0,0.328231
1576.0,0.328117
1578.0,0.328023
1580.0,0.328801
1582.0,0.32938
1584.0,0.328753
1586.0,0.328827
1588.0,0.329489
1590.0,0.329436
1592.0,0.32933
1594.0,0.329147
1596.0,0.329148
1598.0,0.329488
1600.0,0.329501
1602.0,0.329467
1604.0,0.329448
1606.0,0.329733
1608.0,0.329729
1610.0,0.329356
1612.0,0.329199
1614.0,0.329557
1616.0,0.32937
1618.0,0.329276
1620.0,0.329842
1622.0,0.32952
1624.0,0.32897
1626.0,0.32911
1628.0,0.329094
1630.0,0.328692
1632.0,0.328718
1634.0,0.328843
1636.0,0.328782
1638.0,0.32848
1640.0,0.32858
1642.0,0.328724
1644.0,0.328654
1646.0,0.328794
1648.0,0.328573
1650.0,0.328633
1652.0,0.328906
1654.0,0.328944
1656.0,0.32849
1658.0,0.3281
1660.0,0.328097
1662.0,0.327947
1664.0,0.327845
1666.0,0.327768
1668.0,0.327607
1670.0,0.327438
1672.0,0.328028
1674.0,0.327913
1676.0,0.327936
1678.0,0.328585
1680.0,0.328964
1682.0,0.328702
1684.0,0.329427
1686.0,0.329732
1688.0,0.329568
1690.0,0.329547
1692.0,0.329885
1694.0,0.330433
1696.0,0.330283
1698.0,0.329764
1700.0,0.330041
1702.0,0.330747
1704.0,0.330647
1706.0,0.330741
1708.0,0.33076
1710.0,0.33088
1712.0,0.331147
1714.0,0.330997
1716.0,0.330647
1718.0,0.33084
1720.0,0.331417
1722.0,0.331588
1724.0,0.330817
1726.0,0.330344
1728.0,0.330866
1730.0,0.330033
1732.0,0.330176
1734.0,0.331166
1736.0,0.329668
1738.0,0.329834
1740.0,0.330559
1742.0,0.330226
1744.0,0.330121
1746.0,0.329394
1748.0,0.329695
1750.0,0.330293
1752.0,0.330607
1754.0,0.330503
1756.0,0.330203
1758.0,0.329774
1760.0,0.329493
1762.0,0.330467
1764.0,0.330426
1766.0,0.330451
1768.0,0.33016
1770.0,0.329103
1772.0,0.328949
1774.0,0.329179
1776.0,0.330279
1778.0,0.331278
1780.0,0.33067
1782.0,0.330434
1784.0,0.329735
1786.0,0.329857
1788.0,0.331384
1790.0,0.331424
1792.0,0.33178
1794.0,0.330754
1796.0,0.330377
1798.0,0.333652
1800.0,0.331581
1802.0,0.335385
1804.0,0.337975
1806.0,0.339674
1808.0,0.328184
1810.0,0.329613
1812.0,0.329771
1814.0,0.329584
1816.0,0.343173
1818.0,0.387052
1820.0,0.403492
1822.0,0.341622
1824.0,0.329484
1826.0,0.364892
1828.0,0.344716
1830.0,0.308498
1832.0,0.310863
1834.0,0.472571
1836.0,1.0
1838.0,0.781379
1840.0,0.45146
1842.0,1.0
1844.0,0.0
1846.0,0.0
1848.0,0.0
1850.0,0.0
1852.0,0.620826
1854.0,0.132618
1856.0,0.0969428
1858.0,0.40078
1860.0,1.0
1862.0,0.43921
1864.0,0.309416
1866.0,0.303797
1868.0,1.0
1870.0,1.0
1872.0,0.151033
1874.0,0.0923303
1876.0,0.154854
1878.0,0.538081
1880.0,0.51986
1882.0,0.32751
1884.0,0.187955
1886.0,0.23465
1888.0,0.388314
1890.0,0.660405
1892.0,0.618619
1894.0,0.633186
1896.0,0.536058
1898.0,0.321784
1900.0,0.19883
1902.0,0.210396
1904.0,0.132441
1906.0,0.189284
1908.0,0.0702879
1910.0,0.0236923
1912.0,0.566545
1914.0,0.922263
1916.0,0.323563
1918.0,0.301237
1920.0,0.296508
1922.0,0.249102
1924.0,0.232781
1926.0,0.2224
1928.0,0.249044
1930.0,0.291942
1932.0,0.293192
1934.0,0.295943
1936.0,0.311164
1938.0,0.308772
1940.0,0.297566
1942.0,0.302156
1944.0,0.304321
1946.0,0.298098
1948.0,0.298685
1950.0,0.308487
1952.0,0.308279
1954.0,0.286869
1956.0,0.294972
1958.0,0.312122
1960.0,0.304332
1962.0,0.306263
1964.0,0.3124
1966.0,0.30931
1968.0,0.307251
1970.0,0.304652
1972.0,0.307331
1974.0,0.311015
1976.0,0.310622
1978.0,0.311713
1980.0,0.313364
1982.0,0.314597
1984.0,0.316455
1986.0,0.316148
1988.0,0.315312
1990.0,0.314747
1992.0,0.312612
1994.0,0.311038
1996.0,0.312484
1998.0,0.314614
2000.0,0.314817
2002.0,0.321062
2004.0,0.318
2006.0,0.317984
2008.0,0.313814
2010.0,0.313849
2012.0,0.315463
2014.0,0.319794
2016.0,0.326542
2018.0,0.327535
2020.0,0.326559
2022.0,0.325416
2024.0,0.324674
2026.0,0.321228
2028.0,0.319651
2030.0,0.321516
2032.0,0.322652
2034.0,0.323266
2036.0,0.32291
2038.0,0.322828
2040.0,0.323973
2042.0,0.324397
2044.0,0.32304
2046.0,0.320458
2048.0,0.318948
2050.0,0.321315
2052.0,0.324147
2054.0,0.324247
2056.0,0.32547
2058.0,0.32677
2060.0,0.327159
2062.0,0.326327
2064.0,0.325816
2066.0,0.325584
2068.0,0.327021
2070.0,0.324893
2072.0,0.321257
2074.0,0.3221
2076.0,0.327808
2078.0,0.331257
2080.0,0.328013
2082.0,0.325875
2084.0,0.328222
2086.0,0.329047
2088.0,0.327057
2090.0,0.327362
2092.0,0.32697
2094.0,0.32577
2096.0,0.322936
2098.0,0.322924
2100.0,0.324448
2102.0,0.32629
2104.0,0.327023
2106.0,0.329077
2108.0,0.330005
2110.0,0.330611
2112.0,0.329988
2114.0,0.327751
2116.0,0.324225
2118.0,0.324834
2120.0,0.327202
2122.0,0.32802
2124.0,0.329368
2126.0,0.329467
2128.0,0.329484
2130.0,0.32996
2132.0,0.32928
2134.0,0.327296
2136.0,0.326681
2138.0,0.327797
2140.0,0.329006
2142.0,0.330332
2144.0,0.330334
2146.0,0.32882
2148.0,0.328887
2150.0,0.328679
2152.0,0.327472
2154.0,0.327621
2156.0,0.326873
2158.0,0.326555
2160.0,0.326696
2162.0,0.326308
2164.0,0.326318
2166.0,0.32715
2168.0,0.328534
2170.0,0.331287
2172.0,0.330125
2174.0,0.326252
2176.0,0.323597
2178.0,0.323806
2180.0,0.324103
2182.0,0.322686
2184.0,0.322378
2186.0,0.32178
2188.0,0.319957
2190.0,0.319165
2192.0,0.321235
2194.0,0.321793
2196.0,0.320945
2198.0,0.322227
2200.0,0.322852
2202.0,0.320678
2204.0,0.319204
2206.0,0.317487
2208.0,0.315979
2210.0,0.316937
2212.0,0.317873
2214.0,0.316211
2216.0,0.315155
2218.0,0.314402
2220.0,0.317732
2222.0,0.321209
2224.0,0.320888
2226.0,0.319954
2228.0,0.319798
2230.0,0.318951
2232.0,0.318377
2234.0,0.317382
2236.0,0.317128
2238.0,0.318545
2240.0,0.317659
2242.0,0.315266
2244.0,0.315195
2246.0,0.313918
2248.0,0.314961
2250.0,0.317406
2252.0,0.318569
2254.0,0.314834
2256.0,0.313114
2258.0,0.314173
2260.0,0.31573
2262.0,0.315495
2264.0,0.316083
2266.0,0.315862
2268.0,0.313717
2270.0,0.314464
2272.0,0.316661
2274.0,0.313972
2276.0,0.311068
2278.0,0.31158
2280.0,0.312085
2282.0,0.31398
2284.0,0.3164
2286.0,0.317031
2288.0,0.316101
2290.0,0.310606
2292.0,0.310682
2294.0,0.315387
2296.0,0.313881
2298.0,0.30894
2300.0,0.308209
2302.0,0.311878
2304.0,0.312952
2306.0,0.314654
2308.0,0.314888
2310.0,0.315923
2312.0,0.317115
2314.0,0.314883
2316.0,0.313327
2318.0,0.310428
2320.0,0.310396
2322.0,0.312985
2324.0,0.313545
2326.0,0.311339
2328.0,0.3098
2330.0,0.314193
2332.0,0.318324
2334.0,0.319616
2336.0,0.31693
2338.0,0.314468
2340.0,0.312808
2342.0,0.313334
2344.0,0.312084
2346.0,0.305883
2348.0,0.305761
2350.0,0.308076
2352.0,0.310417
2354.0,0.316826
2356.0,0.314482
2358.0,0.315205
2360.0,0.317468
2362.0,0.313728
2364.0,0.310747
2366.0,0.311842
2368.0,0.313215
2370.0,0.316176
2372.0,0.318391
2374.0,0.312183
2376.0,0.303242
2378.0,0.306584
2380.0,0.312813
2382.0,0.306767
2384.0,0.308022
2386.0,0.314982
2388.0,0.302444
2390.0,0.297865
2392.0,0.317097
2394.0,0.324813
2396.0,0.324759
2398.0,0.328936
2400.0,0.324021
2402.0,0.324733
2404.0,0.32059
2406.0,0.317934
2408.0,0.318363
2410.0,0.31611
2412.0,0.319691
2414.0,0.327003
2416.0,0.312647
2418.0,0.304755
2420.0,0.310272
2422.0,0.304241
2424.0,0.309567
2426.0,0.317063
2428.0,0.309759
2430.0,0.310213
2432.0,0.292868
2434.0,0.277058
2436.0,0.270368
2438.0,0.271054
2440.0,0.276492
2442.0,0.267214
2444.0,0.273238
2446.0,0.318736
2448.0,0.357569
2450.0,0.306392
2452.0,0.287039
2454.0,0.269107
2456.0,0.2728
2458.0,0.309046
2460.0,0.298078
2462.0,0.274615
2464.0,0.255943
2466.0,0.264889
2468.0,0.288405
2470.0,0.289669
2472.0,0.308841
2474.0,0.319338
2476.0,0.280431
2478.0,0.272943
2480.0,0.256833
2482.0,0.228645
2484.0,0.273286
2486.0,0.319843
2488.0,0.307523
2490.0,0.259386
2492.0,0.221361
2494.0,0.156592
2496.0,0.121288
2498.0,0.154559
2500.0,0.20609