File: data/spectra_ascii/AsphaltTrockenVerschmutzung1___corthum00396.txt
Wavelength (nm),Reflectance
350.0,0.0681927
352.0,0.0683072
354.0,0.0687356
356.0,0.0701442
358.0,0.0700799
360.0,0.0708328
362.0,0.0711529
364.0,0.0715672
366.0,0.0721414
368.0,0.0724026
370.0,0.0733445
372.0,0.0736924
374.0,0.074426
376.0,0.0756038
378.0,0.0756749
380.0,0.0764458
382.0,0.0773337
384.0,0.0779741
386.0,0.078496
388.0,0.0793218
390.0,0.080017
392.0,0.0805078
394.0,0.0809799
396.0,0.0816759
398.0,0.0822381
400.0,0.0828862
402.0,0.0833609
404.0,0.0839867
406.0,0.0845662
408.0,0.0849687
410.0,0.0856728
412.0,0.0861736
414.0,0.0867808
416.0,0.0875572
418.0,0.0881556
420.0,0.0887301
422.0,0.0893083
424.0,0.0900638
426.0,0.0906122
428.0,0.0912035
430.0,0.0918927
432.0,0.092694
434.0,0.0932925
436.0,0.0939603
438.0,0.094581
440.0,0.095269
442.0,0.0959946
444.0,0.0965951
446.0,0.0971637
448.0,0.097777
450.0,0.0983213
452.0,0.0988294
454.0,0.0995113
456.0,0.0999028
458.0,0.100446
460.0,0.100991
462.0,0.10153
464.0,0.102012
466.0,0.102417
468.0,0.102955
470.0,0.103437
472.0,0.103888
474.0,0.104422
476.0,0.104856
478.0,0.105399
480.0,0.105991
482.0,0.106615
484.0,0.10717
486.0,0.107728
488.0,0.108389
490.0,0.10907
492.0,0.10969
494.0,0.110403
496.0,0.111024
498.0,0.111681
500.0,0.112478
502.0,0.113134
504.0,0.113843
506.0,0.114564
508.0,0.11524
510.0,0.115936
512.0,0.116659
514.0,0.117458
516.0,0.118178
518.0,0.119026
520.0,0.11983
522.0,0.120579
524.0,0.121374
526.0,0.12222
528.0,0.123145
530.0,0.123965
532.0,0.124888
534.0,0.125928
536.0,0.126871
538.0,0.127915
540.0,0.128997
542.0,0.130132
544.0,0.131209
546.0,0.13236
548.0,0.133532
550.0,0.134791
552.0,0.136119
554.0,0.137456
556.0,0.138895
558.0,0.140298
560.0,0.14164
562.0,0.143005
564.0,0.144335
566.0,0.145594
568.0,0.146917
570.0,0.148255
572.0,0.149665
574.0,0.150999
576.0,0.152156
578.0,0.153392
580.0,0.154633
582.0,0.155784
584.0,0.156918
586.0,0.158046
588.0,0.159135
590.0,0.160163
592.0,0.16109
594.0,0.161952
596.0,0.162944
598.0,0.163767
600.0,0.164632
602.0,0.165478
604.0,0.166321
606.0,0.167095
608.0,0.167903
610.0,0.168687
612.0,0.169399
614.0,0.170194
616.0,0.170967
618.0,0.171669
620.0,0.172371
622.0,0.173109
624.0,0.173779
626.0,0.174536
628.0,0.175228
630.0,0.176004
632.0,0.17667
634.0,0.177271
636.0,0.178022
638.0,0.178696
640.0,0.17936
642.0,0.180023
644.0,0.180704
646.0,0.181383
648.0,0.182093
650.0,0.182755
652.0,0.183409
654.0,0.184047
656.0,0.184684
658.0,0.185437
660.0,0.185943
662.0,0.18661
664.0,0.187262
666.0,0.187852
668.0,0.188454
670.0,0.189112
672.0,0.18976
674.0,0.190255
676.0,0.190963
678.0,0.191584
680.0,0.192243
682.0,0.192776
684.0,0.193317
686.0,0.193994
688.0,0.194693
690.0,0.195349
692.0,0.19581
694.0,0.19643
696.0,0.197044
698.0,0.197579
700.0,0.198195
702.0,0.198783
704.0,0.199308
706.0,0.199928
708.0,0.200429
710.0,0.201036
712.0,0.201578
714.0,0.20217
716.0,0.202948
718.0,0.203635
720.0,0.204327
722.0,0.204815
724.0,0.205415
726.0,0.20605
728.0,0.206752
730.0,0.207327
732.0,0.207905
734.0,0.208398
736.0,0.209046
738.0,0.209696
740.0,0.210271
742.0,0.210853
744.0,0.211524
746.0,0.212172
748.0,0.212791
750.0,0.213479
752.0,0.214145
754.0,0.214784
756.0,0.215401
758.0,0.216217
760.0,0.216629
762.0,0.217703
764.0,0.218357
766.0,0.218941
768.0,0.219353
770.0,0.219873
772.0,0.220456
774.0,0.22105
776.0,0.221571
778.0,0.222245
780.0,0.22282
782.0,0.223409
784.0,0.224025
786.0,0.224625
788.0,0.225073
790.0,0.225804
792.0,0.226441
794.0,0.226989
796.0,0.227578
798.0,0.228176
800.0,0.228708
802.0,0.22925
804.0,0.229772
806.0,0.23036
808.0,0.230861
810.0,0.23147
812.0,0.232186
814.0,0.232754
816.0,0.233208
818.0,0.23395
820.0,0.234309
822.0,0.234925
824.0,0.235277
826.0,0.235726
828.0,0.236389
830.0,0.236842
832.0,0.23735
834.0,0.237763
836.0,0.238339
838.0,0.238772
840.0,0.239148
842.0,0.239593
844.0,0.23999
846.0,0.240488
848.0,0.24112
850.0,0.241453
852.0,0.241862
854.0,0.242451
856.0,0.242907
858.0,0.243262
860.0,0.243734
862.0,0.244333
864.0,0.24458
866.0,0.245151
868.0,0.245581
870.0,0.245995
872.0,0.246445
874.0,0.246892
876.0,0.24735
878.0,0.247911
880.0,0.248204
882.0,0.248687
884.0,0.249234
886.0,0.249716
888.0,0.250038
890.0,0.250576
892.0,0.251059
894.0,0.251588
896.0,0.252042
898.0,0.252389
900.0,0.253171
902.0,0.253288
904.0,0.253972
906.0,0.254328
908.0,0.254771
910.0,0.255214
912.0,0.255547
914.0,0.256013
916.0,0.256169
918.0,0.256976
920.0,0.257159
922.0,0.257669
924.0,0.257872
926.0,0.258336
928.0,0.258931
930.0,0.258408
932.0,0.257916
934.0,0.258115
936.0,0.258468
938.0,0.259767
940.0,0.259637
942.0,0.260662
944.0,0.260019
946.0,0.260506
948.0,0.261623
950.0,0.261663
952.0,0.26187
954.0,0.262888
956.0,0.263128
958.0,0.263701
960.0,0.264427
962.0,0.265099
964.0,0.265835
966.0,0.266344
968.0,0.266471
970.0,0.266513
972.0,0.267313
974.0,0.267235
976.0,0.267639
978.0,0.268169
980.0,0.268189
982.0,0.268833
984.0,0.269077
986.0,0.269279
988.0,0.269577
990.0,0.269325
992.0,0.269615
994.0,0.270046
996.0,0.270443
998.0,0.270783
1000.0,0.270604
1002.0,0.276076
1004.0,0.276626
1006.0,0.277015
1008.0,0.276973
1010.0,0.277348
1012.0,0.278469
1014.0,0.278533
1016.0,0.278174
1018.0,0.278276
1020.0,0.278608
1022.0,0.278641
1024.0,0.27911
1026.0,0.279689
1028.0,0.279834
1030.0,0.279537
1032.0,0.279348
1034.0,0.279977
1036.0,0.280069
1038.0,0.280428
1040.0,0.280761
1042.0,0.281103
1044.0,0.281415
1046.0,0.281112
1048.0,0.281582
1050.0,0.282
1052.0,0.28211
1054.0,0.282166
1056.0,0.282258
1058.0,0.282238
1060.0,0.282695
1062.0,0.282831
1064.0,0.282989
1066.0,0.283615
1068.0,0.284183
1070.0,0.284162
1072.0,0.284128
1074.0,0.284779
1076.0,0.285025
1078.0,0.285261
1080.0,0.285259
1082.0,0.285594
1084.0,0.285459
1086.0,0.285397
1088.0,0.286206
1090.0,0.286705
1092.0,0.287042
1094.0,0.2871
1096.0,0.287163
1098.0,0.286925
1100.0,0.287277
1102.0,0.287501
1104.0,0.287719
1106.0,0.287964
1108.0,0.287664
1110.0,0.287893
1112.0,0.288076
1114.0,0.288425
1116.0,0.288905
1118.0,0.288963
1120.0,0.288698
1122.0,0.289215
1124.0,0.289594
1126.0,0.289199
1128.0,0.289245
1130.0,0.289898
1132.0,0.290049
1134.0,0.289816
1136.0,0.290521
1138.0,0.291429
1140.0,0.292134
1142.0,0.293021
1144.0,0.293287
1146.0,0.292485
1148.0,0.292332
1150.0,0.292892
1152.0,0.293728
1154.0,0.294116
1156.0,0.294244
1158.0,0.294405
1160.0,0.2948
1162.0,0.295339
1164.0,0.29533
1166.0,0.294953
1168.0,0.294956
1170.0,0.295391
1172.0,0.295547
1174.0,0.295704
1176.0,0.295798
1178.0,0.295897
1180.0,0.296328
1182.0,0.296615
1184.0,0.296711
1186.0,0.296716
1188.0,0.296897
1190.0,0.297058
1192.0,0.297242
1194.0,0.297424
1196.0,0.297648
1198.0,0.297733
1200.0,0.297821
1202.0,0.29811
1204.0,0.29817
1206.0,0.298299
1208.0,0.298846
1210.0,0.299018
1212.0,0.298794
1214.0,0.298976
1216.0,0.299008
1218.0,0.298823
1220.0,0.298706
1222.0,0.298667
1224.0,0.298855
1226.0,0.299149
1228.0,0.299513
1230.0,0.299648
1232.0,0.299638
1234.0,0.299473
1236.0,0.299706
1238.0,0.299766
1240.0,0.299499
1242.0,0.299365
1244.0,0.29939
1246.0,0.299773
1248.0,0.300074
1250.0,0.300237
1252.0,0.300267
1254.0,0.300074
1256.0,0.300001
1258.0,0.300031
1260.0,0.29999
1262.0,0.300085
1264.0,0.300704
1266.0,0.300812
1268.0,0.300993
1270.0,0.30092
1272.0,0.300922
1274.0,0.300928
1276.0,0.301311
1278.0,0.301493
1280.0,0.301131
1282.0,0.301182
1284.0,0.301614
1286.0,0.301794
1288.0,0.301997
1290.0,0.302075
1292.0,0.301984
1294.0,0.302129
1296.0,0.302531
1298.0,0.302759
1300.0,0.302911
1302.0,0.30312
1304.0,0.30323
1306.0,0.30324
1308.0,0.303465
1310.0,0.303615
1312.0,0.303641
1314.0,0.303816
1316.0,0.304136
1318.0,0.30431
1320.0,0.30414
1322.0,0.304023
1324.0,0.304203
1326.0,0.304356
1328.0,0.304791
1330.0,0.305363
1332.0,0.305226
1334.0,0.305011
1336.0,0.305335
1338.0,0.305468
1340.0,0.306281
1342.0,0.306343
1344.0,0.306315
1346.0,0.306319
1348.0,0.304646
1350.0,0.302415
1352.0,0.301784
1354.0,0.302274
1356.0,0.311337
1358.0,0.335409
1360.0,0.325459
1362.0,0.307405
1364.0,0.365375
1366.0,0.262901
1368.0,0.200644
1370.0,0.205719
1372.0,0.282631
1374.0,0.352478
1376.0,0.396352
1378.0,0.351327
1380.0,0.280461
1382.0,0.238436
1384.0,0.276078
1386.0,0.293492
1388.0,0.272246
1390.0,0.256854
1392.0,0.261641
1394.0,0.273007
1396.0,0.289732
1398.0,0.303284
1400.0,0.296009
1402.0,0.29503
1404.0,0.291421
1406.0,0.288382
1408.0,0.288772
1410.0,0.292011
1412.0,0.297326
1414.0,0.302087
1416.0,0.30003
1418.0,0.29888
1420.0,0.300205
1422.0,0.303557
1424.0,0.305439
1426.0,0.305803
1428.0,0.307247
1430.0,0.307771
1432.0,0.308013
1434.0,0.308158
1436.0,0.308655
1438.0,0.30829
1440.0,0.307089
1442.0,0.305793
1444.0,0.306493
1446.0,0.307304
1448.0,0.306613
1450.0,0.30637
1452.0,0.307311
1454.0,0.308553
1456.0,0.308895
1458.0,0.309223
1460.0,0.309073
1462.0,0.308176
1464.0,0.30813
1466.0,0.30806
1468.0,0.308777
1470.0,0.309642
1472.0,0.309045
1474.0,0.30861
1476.0,0.308959
1478.0,0.30993
1480.0,0.310224
1482.0,0.310844
1484.0,0.311775
1486.0,0.311773
1488.0,0.311566
1490.0,0.31159
1492.0,0.311992
1494.0,0.312019
1496.0,0.31166
1498.0,0.312086
1500.0,0.312324
1502.0,0.311935
1504.0,0.312034
1506.0,0.312501
1508.0,0.312647
1510.0,0.312365
1512.0,0.312274
1514.0,0.312355
1516.0,0.312481
1518.0,0.312793
1520.0,0.312873
1522.0,0.312738
1524.0,0.312904
1526.0,0.313511
1528.0,0.313703
1530.0,0.313479
1532.0,0.313443
1534.0,0.313722
1536.0,0.313779
1538.0,0.313736
1540.0,0.314035
1542.0,0.314287
1544.0,0.31408
1546.0,0.313742
1548.0,0.313397
1550.0,0.313424
1552.0,0.313526
1554.0,0.313561
1556.0,0.313736
1558.0,0.314141
1560.0,0.314369
1562.0,0.314313
1564.0,0.314029
1566.0,0.313585
1568.0,0.313582
1570.0,0.313748
1572.0,0.313688
1574.0,0.313618
1576.0,0.313653
1578.0,0.313886
1580.0,0.314637
1582.0,0.315001
1584.0,0.314358
1586.0,0.314049
1588.0,0.314419
1590.0,0.314509
1592.0,0.314472
1594.0,0.314366
1596.0,0.31412
1598.0,0.314132
1600.0,0.314083
1602.0,0.314174
1604.0,0.314543
1606.0,0.314927
1608.0,0.314601
1610.0,0.314319
1612.0,0.314442
1614.0,0.314365
1616.0,0.314037
1618.0,0.314268
1620.0,0.314521
1622.0,0.31392
1624.0,0.313518
1626.0,0.313488
1628.0,0.31344
1630.0,0.313566
1632.0,0.313655
1634.0,0.313773
1636.0,0.31396
1638.0,0.313653
1640.0,0.313324
1642.0,0.313406
1644.0,0.313381
1646.0,0.313056
1648.0,0.312772
1650.0,0.313099
1652.0,0.313335
1654.0,0.313717
1656.0,0.313773
1658.0,0.313174
1660.0,0.312998
1662.0,0.312934
1664.0,0.312712
1666.0,0.312799
1668.0,0.312544
1670.0,0.31244
1672.0,0.313725
1674.0,0.313466
1676.0,0.312698
1678.0,0.313035
1680.0,0.313462
1682.0,0.313563
1684.0,0.314074
1686.0,0.314486
1688.0,0.314631
1690.0,0.314608
1692.0,0.314835
1694.0,0.31551
1696.0,0.314973
1698.0,0.313952
1700.0,0.314263
1702.0,0.315311
1704.0,0.315421
1706.0,0.315101
1708.0,0.314836
1710.0,0.315178
1712.0,0.315953
1714.0,0.31539
1716.0,0.314942
1718.0,0.315473
1720.0,0.315581
1722.0,0.315593
1724.0,0.315266
1726.0,0.314685
1728.0,0.315087
1730.0,0.314638
1732.0,0.315296
1734.0,0.316651
1736.0,0.314656
1738.0,0.31455
1740.0,0.315313
1742.0,0.315381
1744.0,0.315747
1746.0,0.31476
1748.0,0.314671
1750.0,0.315113
1752.0,0.315355
1754.0,0.315241
1756.0,0.315346
1758.0,0.315317
1760.0,0.314581
1762.0,0.314949
1764.0,0.31502
1766.0,0.31488
1768.0,0.31459
1770.0,0.314469
1772.0,0.314451
1774.0,0.314573
1776.0,0.315441
1778.0,0.316244
1780.0,0.316206
1782.0,0.315041
1784.0,0.314687
1786.0,0.315868
1788.0,0.316452
1790.0,0.315892
1792.0,0.315512
1794.0,0.313525
1796.0,0.313615
1798.0,0.316388
1800.0,0.316354
1802.0,0.319892
1804.0,0.327921
1806.0,0.317235
1808.0,0.305639
1810.0,0.316587
1812.0,0.326406
1814.0,0.32387
1816.0,0.338211
1818.0,0.382703
1820.0,0.422803
1822.0,0.357025
1824.0,0.308217
1826.0,0.322542
1828.0,0.348292
1830.0,0.308859
1832.0,0.288757
1834.0,0.43018
1836.0,0.836324
1838.0,0.477395
1840.0,0.178499
1842.0,1.0
1844.0,0.0
1846.0,0.0
1848.0,0.0
1850.0,0.0
1852.0,0.24609
1854.0,0.238963
1856.0,0.349289
1858.0,1.0
1860.0,1.0
1862.0,0.390486
1864.0,0.237968
1866.0,0.241879
1868.0,0.876335
1870.0,0.622053
1872.0,0.352146
1874.0,0.56207
1876.0,0.446188
1878.0,0.426355
1880.0,0.396997
1882.0,0.445366
1884.0,0.296796
1886.0,0.190126
1888.0,0.167618
1890.0,0.511523
1892.0,0.62971
1894.0,0.486969
1896.0,0.53557
1898.0,0.368831
1900.0,0.225267
1902.0,0.275279
1904.0,0.256275
1906.0,0.243141
1908.0,0.203772
1910.0,0.299499
1912.0,0.657013
1914.0,0.848937
1916.0,0.479089
1918.0,0.309916
1920.0,0.277844
1922.0,0.286891
1924.0,0.295135
1926.0,0.283903
1928.0,0.274325
1930.0,0.301812
1932.0,0.310025
1934.0,0.304175
1936.0,0.329502
1938.0,0.323961
1940.0,0.303333
1942.0,0.293713
1944.0,0.287513
1946.0,0.288974
1948.0,0.292104
1950.0,0.294805
1952.0,0.302629
1954.0,0.298105
1956.0,0.294448
1958.0,0.293503
1960.0,0.294069
1962.0,0.302747
1964.0,0.308734
1966.0,0.306946
1968.0,0.304337
1970.0,0.30071
1972.0,0.301183
1974.0,0.302939
1976.0,0.303077
1978.0,0.302577
1980.0,0.30304
1982.0,0.302973
1984.0,0.305176
1986.0,0.306137
1988.0,0.305474
1990.0,0.305058
1992.0,0.305435
1994.0,0.305276
1996.0,0.305978
1998.0,0.306494
2000.0,0.308379
2002.0,0.316964
2004.0,0.319415
2006.0,0.314993
2008.0,0.308991
2010.0,0.297989
2012.0,0.300493
2014.0,0.314091
2016.0,0.3171
2018.0,0.316946
2020.0,0.313038
2022.0,0.311264
2024.0,0.311925
2026.0,0.311068
2028.0,0.311342
2030.0,0.311902
2032.0,0.311315
2034.0,0.31092
2036.0,0.311486
2038.0,0.312912
2040.0,0.314661
2042.0,0.314288
2044.0,0.313783
2046.0,0.313137
2048.0,0.314912
2050.0,0.315423
2052.0,0.314848
2054.0,0.31185
2056.0,0.312677
2058.0,0.31551
2060.0,0.314421
2062.0,0.313595
2064.0,0.312662
2066.0,0.314769
2068.0,0.318197
2070.0,0.316732
2072.0,0.312523
2074.0,0.313437
2076.0,0.318111
2078.0,0.320626
2080.0,0.31788
2082.0,0.315578
2084.0,0.317084
2086.0,0.318667
2088.0,0.318482
2090.0,0.319754
2092.0,0.319038
2094.0,0.317313
2096.0,0.317344
2098.0,0.318618
2100.0,0.317687
2102.0,0.31816
2104.0,0.318948
2106.0,0.320567
2108.0,0.32061
2110.0,0.320506
2112.0,0.31951
2114.0,0.317712
2116.0,0.316618
2118.0,0.317543
2120.0,0.319077
2122.0,0.319363
2124.0,0.320172
2126.0,0.32039
2128.0,0.320373
2130.0,0.32116
2132.0,0.320706
2134.0,0.320438
2136.0,0.320426
2138.0,0.320807
2140.0,0.321609
2142.0,0.322315
2144.0,0.320875
2146.0,0.319135
2148.0,0.318841
2150.0,0.318532
2152.0,0.317756
2154.0,0.31823
2156.0,0.318789
2158.0,0.317549
2160.0,0.316857
2162.0,0.318001
2164.0,0.317707
2166.0,0.317723
2168.0,0.318147
2170.0,0.318574
2172.0,0.315662
2174.0,0.312783
2176.0,0.312553
2178.0,0.312469
2180.0,0.314861
2182.0,0.315305
2184.0,0.314112
2186.0,0.312957
2188.0,0.311932
2190.0,0.311041
2192.0,0.313688
2194.0,0.312766
2196.0,0.310373
2198.0,0.312539
2200.0,0.312124
2202.0,0.308357
2204.0,0.308482
2206.0,0.307045
2208.0,0.304879
2210.0,0.306584
2212.0,0.307915
2214.0,0.306291
2216.0,0.30368
2218.0,0.3018
2220.0,0.303654
2222.0,0.307644
2224.0,0.308866
2226.0,0.309133
2228.0,0.309432
2230.0,0.309352
2232.0,0.310285
2234.0,0.309944
2236.0,0.307953
2238.0,0.306896
2240.0,0.305409
2242.0,0.304043
2244.0,0.30575
2246.0,0.30735
2248.0,0.306399
2250.0,0.304636
2252.0,0.305205
2254.0,0.304423
2256.0,0.302791
2258.0,0.302193
2260.0,0.303311
2262.0,0.305907
2264.0,0.307111
2266.0,0.307303
2268.0,0.304367
2270.0,0.300997
2272.0,0.303033
2274.0,0.306783
2276.0,0.304672
2278.0,0.302153
2280.0,0.300522
2282.0,0.305336
2284.0,0.308176
2286.0,0.308372
2288.0,0.306973
2290.0,0.30285
2292.0,0.305841
2294.0,0.310386
2296.0,0.309325
2298.0,0.301821
2300.0,0.296946
2302.0,0.300818
2304.0,0.303486
2306.0,0.304196
2308.0,0.306584
2310.0,0.309319
2312.0,0.309439
2314.0,0.304988
2316.0,0.30376
2318.0,0.301765
2320.0,0.301434
2322.0,0.305964
2324.0,0.306864
2326.0,0.303796
2328.0,0.302275
2330.0,0.306673
2332.0,0.307448
2334.0,0.305653
2336.0,0.299735
2338.0,0.301235
2340.0,0.304124
2342.0,0.303238
2344.0,0.301417
2346.0,0.297967
2348.0,0.300223
2350.0,0.29771
2352.0,0.291934
2354.0,0.295919
2356.0,0.303786
2358.0,0.30637
2360.0,0.300731
2362.0,0.298123
2364.0,0.300263
2366.0,0.300413
2368.0,0.299758
2370.0,0.304872
2372.0,0.311982
2374.0,0.309279
2376.0,0.306652
2378.0,0.30921
2380.0,0.307172
2382.0,0.301229
2384.0,0.299533
2386.0,0.303722
2388.0,0.30011
2390.0,0.294361
2392.0,0.298072
2394.0,0.30016
2396.0,0.306975
2398.0,0.309292
2400.0,0.307985
2402.0,0.305855
2404.0,0.299363
2406.0,0.298018
2408.0,0.29574
2410.0,0.290524
2412.0,0.311581
2414.0,0.338946
2416.0,0.321252
2418.0,0.306128
2420.0,0.304892
2422.0,0.310702
2424.0,0.318276
2426.0,0.310861
2428.0,0.298423
2430.0,0.294685
2432.0,0.295843
2434.0,0.299442
2436.0,0.282759
2438.0,0.280098
2440.0,0.288172
2442.0,0.269445
2444.0,0.263949
2446.0,0.304587
2448.0,0.346679
2450.0,0.300577
2452.0,0.26878
2454.0,0.281289
2456.0,0.302342
2458.0,0.322755
2460.0,0.310396
2462.0,0.307553
2464.0,0.313802
2466.0,0.302444
2468.0,0.297332
2470.0,0.301161
2472.0,0.28914
2474.0,0.326732
2476.0,0.381172
2478.0,0.316544
2480.0,0.256377
2482.0,0.34112
2484.0,0.379546
2486.0,0.314411
2488.0,0.265936
2490.0,0.200253
2492.0,0.260708
2494.0,0.272671
2496.0,0.226266
2498.0,0.22376
2500.0,0.267917