File: data/spectra_ascii/AsphaltNassPfuetzen___corthum00442.txt
Wavelength (nm),Reflectance
350.0,0.0256164
352.0,0.0252274
354.0,0.0256038
356.0,0.0250573
358.0,0.0249871
360.0,0.024679
362.0,0.02479
364.0,0.0245383
366.0,0.0247111
368.0,0.0246229
370.0,0.0245289
372.0,0.0241292
374.0,0.0245433
376.0,0.0244347
378.0,0.024182
380.0,0.0243648
382.0,0.0245623
384.0,0.0241932
386.0,0.0244979
388.0,0.0242025
390.0,0.0242609
392.0,0.0244471
394.0,0.0242226
396.0,0.0242858
398.0,0.024613
400.0,0.0242919
402.0,0.0242689
404.0,0.0242627
406.0,0.0243414
408.0,0.0243194
410.0,0.0245716
412.0,0.0244347
414.0,0.0244543
416.0,0.0246525
418.0,0.0245503
420.0,0.0246498
422.0,0.0247235
424.0,0.0247559
426.0,0.0248574
428.0,0.0249713
430.0,0.0249915
432.0,0.0251619
434.0,0.0252681
436.0,0.0253196
438.0,0.0254662
440.0,0.0255901
442.0,0.0257255
444.0,0.0258256
446.0,0.0258077
448.0,0.0259472
450.0,0.0259372
452.0,0.026088
454.0,0.0261834
456.0,0.0263164
458.0,0.0262763
460.0,0.0264069
462.0,0.0265298
464.0,0.0265798
466.0,0.0266371
468.0,0.0267439
470.0,0.0269149
472.0,0.0269059
474.0,0.0270471
476.0,0.0271677
478.0,0.0272375
480.0,0.0273457
482.0,0.0274168
484.0,0.0275078
486.0,0.0277242
488.0,0.0278135
490.0,0.027966
492.0,0.028049
494.0,0.0281516
496.0,0.02832
498.0,0.0284948
500.0,0.0285562
502.0,0.0288005
504.0,0.0289236
506.0,0.0290625
508.0,0.029196
510.0,0.02937
512.0,0.0295069
514.0,0.0296813
516.0,0.0297939
518.0,0.0299792
520.0,0.0301514
522.0,0.0302977
524.0,0.0304872
526.0,0.0306439
528.0,0.0308909
530.0,0.0310977
532.0,0.0312802
534.0,0.0314972
536.0,0.0317512
538.0,0.0319231
540.0,0.0322748
542.0,0.0324444
544.0,0.0328
546.0,0.0329613
548.0,0.0332321
550.0,0.0335428
552.0,0.033819
554.0,0.0341503
556.0,0.0345058
558.0,0.0348175
560.0,0.0351323
562.0,0.0354239
564.0,0.0357202
566.0,0.036035
568.0,0.0363294
570.0,0.03661
572.0,0.0369264
574.0,0.0372591
576.0,0.0375408
578.0,0.0378138
580.0,0.0380691
582.0,0.0382728
584.0,0.0385765
586.0,0.0388463
588.0,0.0391558
590.0,0.0393698
592.0,0.0396431
594.0,0.0398401
596.0,0.0400298
598.0,0.0401949
600.0,0.0404061
602.0,0.0406177
604.0,0.0408421
606.0,0.0410435
608.0,0.0412254
610.0,0.0413919
612.0,0.041602
614.0,0.0418298
616.0,0.0419423
618.0,0.042175
620.0,0.0423737
622.0,0.0424808
624.0,0.0427847
626.0,0.0429552
628.0,0.043218
630.0,0.0434289
632.0,0.0435191
634.0,0.0436602
636.0,0.0438303
638.0,0.0440422
640.0,0.0442117
642.0,0.0443846
644.0,0.0445911
646.0,0.0447605
648.0,0.0450175
650.0,0.0451715
652.0,0.0453303
654.0,0.0454875
656.0,0.0457093
658.0,0.0457913
660.0,0.0460025
662.0,0.0462261
664.0,0.0463408
666.0,0.0464977
668.0,0.0466764
670.0,0.0468832
672.0,0.0470283
674.0,0.0471721
676.0,0.0474048
678.0,0.0475628
680.0,0.0476878
682.0,0.0478853
684.0,0.048112
686.0,0.0484315
688.0,0.0487918
690.0,0.0489287
692.0,0.0490004
694.0,0.0491854
696.0,0.0492876
698.0,0.049416
700.0,0.0496261
702.0,0.0497531
704.0,0.0499353
706.0,0.0501274
708.0,0.050288
710.0,0.0504275
712.0,0.0506468
714.0,0.050854
716.0,0.0511678
718.0,0.0517293
720.0,0.0518183
722.0,0.0517935
724.0,0.0521131
726.0,0.0523136
728.0,0.0524536
730.0,0.0525872
732.0,0.0527011
734.0,0.0527474
736.0,0.0528702
738.0,0.0530396
740.0,0.0531815
742.0,0.0533946
744.0,0.0535716
746.0,0.0537531
748.0,0.0539623
750.0,0.054092
752.0,0.0542854
754.0,0.054509
756.0,0.0546379
758.0,0.0548982
760.0,0.0557634
762.0,0.0566535
764.0,0.0565467
766.0,0.0561226
768.0,0.0558537
770.0,0.0558666
772.0,0.0560204
774.0,0.0561549
776.0,0.0564001
778.0,0.0564801
780.0,0.0566273
782.0,0.0568294
784.0,0.0569484
786.0,0.0571266
788.0,0.0573471
790.0,0.0574383
792.0,0.0575733
794.0,0.0576754
796.0,0.0578231
798.0,0.0579612
800.0,0.0581261
802.0,0.0582797
804.0,0.0584059
806.0,0.0584751
808.0,0.0586011
810.0,0.0587642
812.0,0.0590201
814.0,0.059407
816.0,0.0595686
818.0,0.0594829
820.0,0.0594904
822.0,0.0596525
824.0,0.0597493
826.0,0.0597536
828.0,0.0598762
830.0,0.0599144
832.0,0.0599609
834.0,0.0600036
836.0,0.0600852
838.0,0.0601241
840.0,0.0602145
842.0,0.0602295
844.0,0.0603109
846.0,0.0603669
848.0,0.060435
850.0,0.0604727
852.0,0.0605956
854.0,0.0606514
856.0,0.0606954
858.0,0.0608211
860.0,0.0609547
862.0,0.0608887
864.0,0.0609933
866.0,0.0611831
868.0,0.0612508
870.0,0.0612386
872.0,0.0612382
874.0,0.0613417
876.0,0.0613983
878.0,0.0614445
880.0,0.0614675
882.0,0.0616132
884.0,0.0615855
886.0,0.0618564
888.0,0.0617966
890.0,0.0618919
892.0,0.0620857
894.0,0.0622796
896.0,0.0622964
898.0,0.0622298
900.0,0.0624403
902.0,0.0622925
904.0,0.0622596
906.0,0.0626205
908.0,0.062566
910.0,0.0624781
912.0,0.0628743
914.0,0.0632952
916.0,0.0630296
918.0,0.063009
920.0,0.0628171
922.0,0.0631288
924.0,0.0628624
926.0,0.0626432
928.0,0.0631215
930.0,0.0632401
932.0,0.0632903
934.0,0.0638933
936.0,0.0631498
938.0,0.0622895
940.0,0.0631697
942.0,0.0627686
944.0,0.0629526
946.0,0.0628897
948.0,0.0619773
950.0,0.0613303
952.0,0.0622408
954.0,0.0615836
956.0,0.0616247
958.0,0.0616205
960.0,0.0613343
962.0,0.0609733
964.0,0.0607144
966.0,0.0610437
968.0,0.0606192
970.0,0.0608894
972.0,0.0609985
974.0,0.0611642
976.0,0.061198
978.0,0.0612127
980.0,0.0608945
982.0,0.0608109
984.0,0.0607259
986.0,0.0615829
988.0,0.0610703
990.0,0.0616042
992.0,0.0608827
994.0,0.0611548
996.0,0.0614206
998.0,0.0616269
1000.0,0.0619956
1002.0,0.064863
1004.0,0.0653345
1006.0,0.065075
1008.0,0.0645663
1010.0,0.0647543
1012.0,0.0653536
1014.0,0.0655038
1016.0,0.0656437
1018.0,0.0658844
1020.0,0.065998
1022.0,0.0659655
1024.0,0.0660808
1026.0,0.0663938
1028.0,0.066555
1030.0,0.0667402
1032.0,0.066898
1034.0,0.0669556
1036.0,0.0672209
1038.0,0.0671979
1040.0,0.0669819
1042.0,0.0671442
1044.0,0.066976
1046.0,0.0669233
1048.0,0.067265
1050.0,0.0672951
1052.0,0.067137
1054.0,0.0676469
1056.0,0.0681851
1058.0,0.0683025
1060.0,0.06829
1062.0,0.0683292
1064.0,0.0682489
1066.0,0.0683475
1068.0,0.0686385
1070.0,0.0688455
1072.0,0.0686906
1074.0,0.0685528
1076.0,0.0687671
1078.0,0.0690007
1080.0,0.0688379
1082.0,0.0687784
1084.0,0.0689441
1086.0,0.0691856
1088.0,0.0691608
1090.0,0.0689014
1092.0,0.0689668
1094.0,0.0688421
1096.0,0.0689297
1098.0,0.0692405
1100.0,0.0695993
1102.0,0.0696447
1104.0,0.0693209
1106.0,0.0691399
1108.0,0.0690677
1110.0,0.0690878
1112.0,0.0694755
1114.0,0.0698975
1116.0,0.0698408
1118.0,0.0705247
1120.0,0.0711383
1122.0,0.0710619
1124.0,0.071647
1126.0,0.0714342
1128.0,0.0709932
1130.0,0.0703843
1132.0,0.069897
1134.0,0.0689347
1136.0,0.0683966
1138.0,0.0680056
1140.0,0.0678272
1142.0,0.0677924
1144.0,0.0669038
1146.0,0.0662627
1148.0,0.0655005
1150.0,0.065124
1152.0,0.0645833
1154.0,0.0639586
1156.0,0.063546
1158.0,0.063018
1160.0,0.0627666
1162.0,0.0624886
1164.0,0.0624533
1166.0,0.0623572
1168.0,0.062128
1170.0,0.0619613
1172.0,0.0619249
1174.0,0.0620403
1176.0,0.0619405
1178.0,0.0616817
1180.0,0.0616521
1182.0,0.0616647
1184.0,0.0617955
1186.0,0.0616696
1188.0,0.0614804
1190.0,0.0614446
1192.0,0.0615353
1194.0,0.0617069
1196.0,0.0616872
1198.0,0.0617427
1200.0,0.0616209
1202.0,0.0618067
1204.0,0.0619068
1206.0,0.0619169
1208.0,0.0619666
1210.0,0.0620377
1212.0,0.062168
1214.0,0.0623265
1216.0,0.0623056
1218.0,0.0622722
1220.0,0.0624137
1222.0,0.0623927
1224.0,0.062334
1226.0,0.0624314
1228.0,0.0624756
1230.0,0.062542
1232.0,0.0626341
1234.0,0.0625212
1236.0,0.0625433
1238.0,0.0628072
1240.0,0.0628252
1242.0,0.0626748
1244.0,0.0627571
1246.0,0.0630431
1248.0,0.0633012
1250.0,0.0633097
1252.0,0.0633749
1254.0,0.0636289
1256.0,0.063712
1258.0,0.0637862
1260.0,0.0641197
1262.0,0.0644122
1264.0,0.0645037
1266.0,0.0645612
1268.0,0.0646683
1270.0,0.0647631
1272.0,0.0645406
1274.0,0.0643964
1276.0,0.0643372
1278.0,0.0643162
1280.0,0.0642535
1282.0,0.0641669
1284.0,0.0639473
1286.0,0.0638256
1288.0,0.0639019
1290.0,0.0638786
1292.0,0.0638878
1294.0,0.0637255
1296.0,0.0634659
1298.0,0.0632591
1300.0,0.0630699
1302.0,0.0628211
1304.0,0.0627008
1306.0,0.0625732
1308.0,0.0622734
1310.0,0.0621462
1312.0,0.0620037
1314.0,0.0616426
1316.0,0.0610756
1318.0,0.0607268
1320.0,0.0603939
1322.0,0.060082
1324.0,0.0598519
1326.0,0.0593985
1328.0,0.0589215
1330.0,0.0586108
1332.0,0.0583361
1334.0,0.0578571
1336.0,0.0573695
1338.0,0.0570199
1340.0,0.0568493
1342.0,0.0566939
1344.0,0.0563517
1346.0,0.0563452
1348.0,0.0568957
1350.0,0.0574392
1352.0,0.0572043
1354.0,0.0599715
1356.0,0.0668005
1358.0,0.0707898
1360.0,0.0940067
1362.0,0.0906497
1364.0,0.066643
1366.0,0.18752
1368.0,0.501929
1370.0,0.406572
1372.0,0.155959
1374.0,0.102643
1376.0,0.113259
1378.0,0.119747
1380.0,0.122171
1382.0,0.0980648
1384.0,0.0703439
1386.0,0.0824749
1388.0,0.073317
1390.0,0.0548661
1392.0,0.0659936
1394.0,0.0685887
1396.0,0.0585299
1398.0,0.0409672
1400.0,0.0325319
1402.0,0.0424274
1404.0,0.0558742
1406.0,0.0506369
1408.0,0.0395333
1410.0,0.0389773
1412.0,0.0348567
1414.0,0.0331898
1416.0,0.0321502
1418.0,0.0294373
1420.0,0.02651
1422.0,0.0261149
1424.0,0.0250456
1426.0,0.024482
1428.0,0.0234846
1430.0,0.0232791
1432.0,0.0231709
1434.0,0.0230006
1436.0,0.0223098
1438.0,0.0221019
1440.0,0.0210977
1442.0,0.0212556
1444.0,0.0212316
1446.0,0.0204492
1448.0,0.0200656
1450.0,0.0196115
1452.0,0.019173
1454.0,0.0186437
1456.0,0.0183995
1458.0,0.0188326
1460.0,0.0187748
1462.0,0.018237
1464.0,0.0182306
1466.0,0.018384
1468.0,0.0184916
1470.0,0.0191902
1472.0,0.0190432
1474.0,0.0183641
1476.0,0.0188827
1478.0,0.0190158
1480.0,0.0184345
1482.0,0.0182634
1484.0,0.0187546
1486.0,0.0193343
1488.0,0.019573
1490.0,0.0195799
1492.0,0.0195642
1494.0,0.0195294
1496.0,0.019372
1498.0,0.0196853
1500.0,0.0201165
1502.0,0.0205734
1504.0,0.0210251
1506.0,0.0212341
1508.0,0.0216111
1510.0,0.0220782
1512.0,0.0223066
1514.0,0.0222562
1516.0,0.022648
1518.0,0.0231713
1520.0,0.0235863
1522.0,0.0240131
1524.0,0.0244061
1526.0,0.0246687
1528.0,0.0249401
1530.0,0.0253154
1532.0,0.0258097
1534.0,0.0263475
1536.0,0.0268953
1538.0,0.0272255
1540.0,0.0272681
1542.0,0.027665
1544.0,0.0282804
1546.0,0.0288398
1548.0,0.0290628
1550.0,0.0294247
1552.0,0.0299037
1554.0,0.0302878
1556.0,0.0305651
1558.0,0.0309551
1560.0,0.0314628
1562.0,0.0318518
1564.0,0.0326471
1566.0,0.0329227
1568.0,0.0329297
1570.0,0.033694
1572.0,0.0342612
1574.0,0.0343204
1576.0,0.034285
1578.0,0.0346568
1580.0,0.0351301
1582.0,0.0357127
1584.0,0.0363895
1586.0,0.0364605
1588.0,0.0366064
1590.0,0.0370945
1592.0,0.0373437
1594.0,0.0375917
1596.0,0.0377153
1598.0,0.0380206
1600.0,0.0382752
1602.0,0.0385751
1604.0,0.0390734
1606.0,0.0392044
1608.0,0.0393956
1610.0,0.0396997
1612.0,0.0398719
1614.0,0.0398612
1616.0,0.0400932
1618.0,0.0403722
1620.0,0.0404605
1622.0,0.0409327
1624.0,0.0412322
1626.0,0.0413941
1628.0,0.0413713
1630.0,0.0411187
1632.0,0.0413699
1634.0,0.0413813
1636.0,0.0416214
1638.0,0.0421899
1640.0,0.0423086
1642.0,0.0423436
1644.0,0.0424376
1646.0,0.0422343
1648.0,0.0422
1650.0,0.0427733
1652.0,0.0431216
1654.0,0.0431308
1656.0,0.0435154
1658.0,0.0437235
1660.0,0.0433946
1662.0,0.043359
1664.0,0.0435286
1666.0,0.0436539
1668.0,0.0438371
1670.0,0.0436223
1672.0,0.0435045
1674.0,0.0437577
1676.0,0.0437614
1678.0,0.0437554
1680.0,0.0438016
1682.0,0.0438268
1684.0,0.0439378
1686.0,0.0441566
1688.0,0.0445597
1690.0,0.044401
1692.0,0.0441212
1694.0,0.0442244
1696.0,0.0445132
1698.0,0.0444221
1700.0,0.0442899
1702.0,0.0441025
1704.0,0.0439074
1706.0,0.0440242
1708.0,0.0442803
1710.0,0.0443233
1712.0,0.0442622
1714.0,0.0440446
1716.0,0.044207
1718.0,0.0444125
1720.0,0.0439505
1722.0,0.0437587
1724.0,0.0435006
1726.0,0.0432272
1728.0,0.0431208
1730.0,0.0429096
1732.0,0.0427815
1734.0,0.0426848
1736.0,0.0430847
1738.0,0.0429124
1740.0,0.0421864
1742.0,0.0417825
1744.0,0.0411052
1746.0,0.04123
1748.0,0.0410667
1750.0,0.0404641
1752.0,0.0405365
1754.0,0.0404099
1756.0,0.0401086
1758.0,0.0399777
1760.0,0.039777
1762.0,0.0396108
1764.0,0.0396786
1766.0,0.0392092
1768.0,0.0389611
1770.0,0.0388414
1772.0,0.0391208
1774.0,0.0400336
1776.0,0.0396082
1778.0,0.0390461
1780.0,0.038981
1782.0,0.0390897
1784.0,0.0393979
1786.0,0.0384976
1788.0,0.0379264
1790.0,0.0384082
1792.0,0.0396095
1794.0,0.0397228
1796.0,0.0397746
1798.0,0.0396489
1800.0,0.0375008
1802.0,0.0440643
1804.0,0.0443824
1806.0,0.0466219
1808.0,0.0517246
1810.0,0.0588326
1812.0,0.0606234
1814.0,0.0731465
1816.0,0.0906305
1818.0,0.122382
1820.0,0.113909
1822.0,0.0721485
1824.0,0.0409417
1826.0,0.0574023
1828.0,0.0574494
1830.0,0.0240519
1832.0,0.0928486
1834.0,0.285388
1836.0,0.0
1838.0,0.0
1840.0,0.0
1842.0,0.0
1844.0,0.0
1846.0,0.0
1848.0,0.0
1850.0,0.0
1852.0,0.138506
1854.0,0.104898
1856.0,0.0
1858.0,0.0
1860.0,0.552176
1862.0,0.842932
1864.0,0.171795
1866.0,0.119595
1868.0,0.24716
1870.0,0.978256
1872.0,0.997962
1874.0,0.583136
1876.0,0.326267
1878.0,0.318758
1880.0,0.227756
1882.0,0.16136
1884.0,0.0703899
1886.0,0.123489
1888.0,0.115211
1890.0,0.14832
1892.0,0.128428
1894.0,0.0734623
1896.0,0.0670228
1898.0,0.180945
1900.0,0.625906
1902.0,0.0
1904.0,1.0
1906.0,1.0
1908.0,0.408416
1910.0,0.352974
1912.0,0.43946
1914.0,0.134725
1916.0,0.0696595
1918.0,0.02672
1920.0,0.0200336
1922.0,0.0551996
1924.0,0.0558851
1926.0,0.042703
1928.0,0.0421177
1930.0,0.0380692
1932.0,0.0251032
1934.0,0.0111464
1936.0,0.0204831
1938.0,0.012702
1940.0,0.00235982
1942.0,0.0
1944.0,0.00899211
1946.0,0.0208197
1948.0,0.022077
1950.0,0.0156568
1952.0,0.00755376
1954.0,0.00997957
1956.0,0.0237763
1958.0,0.0238762
1960.0,0.0191286
1962.0,0.0160253
1964.0,0.0144333
1966.0,0.0101847
1968.0,0.00995206
1970.0,0.0110947
1972.0,0.0107251
1974.0,0.00988894
1976.0,0.00956184
1978.0,0.00928689
1980.0,0.0100569
1982.0,0.0101883
1984.0,0.00911554
1986.0,0.00827248
1988.0,0.00774201
1990.0,0.00745966
1992.0,0.00687011
1994.0,0.00737731
1996.0,0.0079176
1998.0,0.00650787
2000.0,0.00716416
2002.0,0.00991145
2004.0,0.0145506
2006.0,0.0214746
2008.0,0.0238041
2010.0,0.0235912
2012.0,0.0199482
2014.0,0.0167873
2016.0,0.0175403
2018.0,0.0154508
2020.0,0.0112354
2022.0,0.0100704
2024.0,0.0129331
2026.0,0.0133781
2028.0,0.0127746
2030.0,0.0117623
2032.0,0.0109868
2034.0,0.00933096
2036.0,0.0102118
2038.0,0.0120166
2040.0,0.0125634
2042.0,0.0116202
2044.0,0.0129666
2046.0,0.0138499
2048.0,0.0140588
2050.0,0.014126
2052.0,0.0164471
2054.0,0.0173088
2056.0,0.014499
2058.0,0.011201
2060.0,0.0118402
2062.0,0.0126772
2064.0,0.0117605
2066.0,0.0121954
2068.0,0.0138899
2070.0,0.015691
2072.0,0.015646
2074.0,0.0161546
2076.0,0.0162444
2078.0,0.0157218
2080.0,0.0155162
2082.0,0.0155379
2084.0,0.015865
2086.0,0.0159113
2088.0,0.0148311
2090.0,0.0149911
2092.0,0.0166883
2094.0,0.0180022
2096.0,0.0181668
2098.0,0.0170287
2100.0,0.0178587
2102.0,0.0179202
2104.0,0.0175042
2106.0,0.0196201
2108.0,0.0194075
2110.0,0.0187249
2112.0,0.0191818
2114.0,0.0199819
2116.0,0.0196259
2118.0,0.0191887
2120.0,0.0190723
2122.0,0.0205451
2124.0,0.0214053
2126.0,0.0210487
2128.0,0.0210273
2130.0,0.0217603
2132.0,0.0220036
2134.0,0.0225723
2136.0,0.0232275
2138.0,0.0228422
2140.0,0.0226572
2142.0,0.0225905
2144.0,0.0226005
2146.0,0.0223139
2148.0,0.0227851
2150.0,0.0235426
2152.0,0.0231828
2154.0,0.0223583
2156.0,0.0226795
2158.0,0.0240445
2160.0,0.023144
2162.0,0.0230873
2164.0,0.024577
2166.0,0.0250983
2168.0,0.0259904
2170.0,0.0252931
2172.0,0.0235394
2174.0,0.0231775
2176.0,0.0240327
2178.0,0.0240267
2180.0,0.0227143
2182.0,0.0223848
2184.0,0.0232409
2186.0,0.023272
2188.0,0.0228699
2190.0,0.0217588
2192.0,0.0220429
2194.0,0.022155
2196.0,0.0221487
2198.0,0.023756
2200.0,0.0256096
2202.0,0.0249278
2204.0,0.0230075
2206.0,0.022783
2208.0,0.024536
2210.0,0.0264705
2212.0,0.0265359
2214.0,0.0261307
2216.0,0.0260509
2218.0,0.0252391
2220.0,0.025394
2222.0,0.024907
2224.0,0.0243044
2226.0,0.0243264
2228.0,0.0246855
2230.0,0.024488
2232.0,0.022557
2234.0,0.0222519
2236.0,0.0238849
2238.0,0.023805
2240.0,0.0259666
2242.0,0.0276204
2244.0,0.027357
2246.0,0.025482
2248.0,0.0242869
2250.0,0.0216736
2252.0,0.0223023
2254.0,0.0232592
2256.0,0.022186
2258.0,0.0219996
2260.0,0.0216353
2262.0,0.0220928
2264.0,0.0238868
2266.0,0.0246266
2268.0,0.0256145
2270.0,0.023802
2272.0,0.0206702
2274.0,0.0203894
2276.0,0.0226062
2278.0,0.023957
2280.0,0.0219675
2282.0,0.0212117
2284.0,0.0217705
2286.0,0.0182081
2288.0,0.0181698
2290.0,0.0211264
2292.0,0.0210239
2294.0,0.0200046
2296.0,0.0192457
2298.0,0.0185218
2300.0,0.0182067
2302.0,0.0178071
2304.0,0.0167611
2306.0,0.0185123
2308.0,0.0216961
2310.0,0.020405
2312.0,0.0195756
2314.0,0.0204387
2316.0,0.01831
2318.0,0.0178096
2320.0,0.0184365
2322.0,0.0198091
2324.0,0.0218716
2326.0,0.0201329
2328.0,0.0176396
2330.0,0.0179643
2332.0,0.0202877
2334.0,0.0191007
2336.0,0.0170099
2338.0,0.0154909
2340.0,0.0174886
2342.0,0.0195075
2344.0,0.0169102
2346.0,0.0141143
2348.0,0.0134327
2350.0,0.0121269
2352.0,0.0119215
2354.0,0.0152709
2356.0,0.0168694
2358.0,0.0144074
2360.0,0.0111898
2362.0,0.0124421
2364.0,0.0125178
2366.0,0.0112938
2368.0,0.0151435
2370.0,0.0142394
2372.0,0.0120808
2374.0,0.0120472
2376.0,0.00988529
2378.0,0.0132398
2380.0,0.0181088
2382.0,0.015048
2384.0,0.0132514
2386.0,0.0121051
2388.0,0.00808114
2390.0,0.00337299
2392.0,0.00413988
2394.0,0.0114948
2396.0,0.0107923
2398.0,0.00938053
2400.0,0.00958707
2402.0,0.0110027
2404.0,0.0103059
2406.0,0.0158482
2408.0,0.0234644
2410.0,0.0226682
2412.0,0.0172069
2414.0,0.00910742
2416.0,0.0176866
2418.0,0.0138877
2420.0,0.0
2422.0,0.00430345
2424.0,0.0128822
2426.0,0.0259583
2428.0,0.0288932
2430.0,0.0181024
2432.0,0.0159638
2434.0,0.0291844
2436.0,0.0237309
2438.0,0.00397242
2440.0,0.00163701
2442.0,0.0219114
2444.0,0.0372048
2446.0,0.0152983
2448.0,0.0
2450.0,0.0
2452.0,0.0
2454.0,0.000243033
2456.0,0.0
2458.0,0.0
2460.0,0.0
2462.0,0.0
2464.0,0.0
2466.0,0.00208283
2468.0,0.00128201
2470.0,0.0
2472.0,0.0487448
2474.0,0.0756856
2476.0,0.0278976
2478.0,0.00283168
2480.0,0.0
2482.0,0.0
2484.0,0.0626563
2486.0,0.107838
2488.0,0.0
2490.0,0.0
2492.0,0.0
2494.0,0.368205
2496.0,0.294973
2498.0,0.169163
2500.0,0.0341051