File: data/spectra_ascii/AsphaltTrockenVerschmutzung2___corthum00453.txt
Wavelength (nm),Reflectance
350.0,0.0752681
352.0,0.0761125
354.0,0.0763818
356.0,0.0770375
358.0,0.0774667
360.0,0.0776316
362.0,0.0784631
364.0,0.0791615
366.0,0.0794328
368.0,0.079739
370.0,0.0801026
372.0,0.0807241
374.0,0.0818209
376.0,0.0824502
378.0,0.083266
380.0,0.084263
382.0,0.0850561
384.0,0.085611
386.0,0.0863977
388.0,0.0868405
390.0,0.0873845
392.0,0.0882457
394.0,0.0887338
396.0,0.0897035
398.0,0.0906948
400.0,0.0910926
402.0,0.0915806
404.0,0.0921538
406.0,0.0926829
408.0,0.0931819
410.0,0.0938409
412.0,0.0945512
414.0,0.0952331
416.0,0.0958391
418.0,0.0966707
420.0,0.0971501
422.0,0.0978962
424.0,0.0985154
426.0,0.0993173
428.0,0.100092
430.0,0.100876
432.0,0.101629
434.0,0.102507
436.0,0.103225
438.0,0.103887
440.0,0.10456
442.0,0.105358
444.0,0.106039
446.0,0.106789
448.0,0.107338
450.0,0.10798
452.0,0.108618
454.0,0.109312
456.0,0.109875
458.0,0.110481
460.0,0.111088
462.0,0.111593
464.0,0.112111
466.0,0.112711
468.0,0.113262
470.0,0.113837
472.0,0.11437
474.0,0.114973
476.0,0.115464
478.0,0.11603
480.0,0.1167
482.0,0.117364
484.0,0.117877
486.0,0.118549
488.0,0.119271
490.0,0.119981
492.0,0.120616
494.0,0.12134
496.0,0.122007
498.0,0.122751
500.0,0.123477
502.0,0.124145
504.0,0.124899
506.0,0.125583
508.0,0.126368
510.0,0.127122
512.0,0.127717
514.0,0.128499
516.0,0.129256
518.0,0.130072
520.0,0.130891
522.0,0.131653
524.0,0.132468
526.0,0.13325
528.0,0.134186
530.0,0.135
532.0,0.135946
534.0,0.1369
536.0,0.13783
538.0,0.138817
540.0,0.139894
542.0,0.141019
544.0,0.142078
546.0,0.143161
548.0,0.144276
550.0,0.145491
552.0,0.1467
554.0,0.147968
556.0,0.14929
558.0,0.1506
560.0,0.151907
562.0,0.153138
564.0,0.154289
566.0,0.155514
568.0,0.156744
570.0,0.157972
572.0,0.159136
574.0,0.160276
576.0,0.161386
578.0,0.162515
580.0,0.16354
582.0,0.1646
584.0,0.165653
586.0,0.1667
588.0,0.167637
590.0,0.168595
592.0,0.169436
594.0,0.170308
596.0,0.171184
598.0,0.172012
600.0,0.172849
602.0,0.173643
604.0,0.174417
606.0,0.175219
608.0,0.175921
610.0,0.176665
612.0,0.177404
614.0,0.178157
616.0,0.178877
618.0,0.179531
620.0,0.18021
622.0,0.180947
624.0,0.181611
626.0,0.182311
628.0,0.182932
630.0,0.183619
632.0,0.184244
634.0,0.184968
636.0,0.185586
638.0,0.186241
640.0,0.186808
642.0,0.187489
644.0,0.188139
646.0,0.188684
648.0,0.189204
650.0,0.189909
652.0,0.190456
654.0,0.190942
656.0,0.191549
658.0,0.192098
660.0,0.192622
662.0,0.193208
664.0,0.193642
666.0,0.19416
668.0,0.194657
670.0,0.195086
672.0,0.195587
674.0,0.196092
676.0,0.196473
678.0,0.196968
680.0,0.197384
682.0,0.197839
684.0,0.198331
686.0,0.198691
688.0,0.199192
690.0,0.199572
692.0,0.200008
694.0,0.200374
696.0,0.200698
698.0,0.201071
700.0,0.201431
702.0,0.201797
704.0,0.202156
706.0,0.202484
708.0,0.202814
710.0,0.203203
712.0,0.203524
714.0,0.20388
716.0,0.204222
718.0,0.204657
720.0,0.205033
722.0,0.205344
724.0,0.205676
726.0,0.206092
728.0,0.206509
730.0,0.206869
732.0,0.207292
734.0,0.207646
736.0,0.208023
738.0,0.208481
740.0,0.208866
742.0,0.209337
744.0,0.209732
746.0,0.210081
748.0,0.210561
750.0,0.210982
752.0,0.211467
754.0,0.211929
756.0,0.212362
758.0,0.212909
760.0,0.213041
762.0,0.213731
764.0,0.21427
766.0,0.214729
768.0,0.215117
770.0,0.215396
772.0,0.215791
774.0,0.216185
776.0,0.216616
778.0,0.217045
780.0,0.217479
782.0,0.217875
784.0,0.218263
786.0,0.218664
788.0,0.219004
790.0,0.219455
792.0,0.219882
794.0,0.220215
796.0,0.220605
798.0,0.220987
800.0,0.221384
802.0,0.221754
804.0,0.222043
806.0,0.222428
808.0,0.222888
810.0,0.223214
812.0,0.223571
814.0,0.223886
816.0,0.22418
818.0,0.224508
820.0,0.224888
822.0,0.225304
824.0,0.225501
826.0,0.225774
828.0,0.226167
830.0,0.226438
832.0,0.22682
834.0,0.227109
836.0,0.227225
838.0,0.227603
840.0,0.227938
842.0,0.22827
844.0,0.228503
846.0,0.228762
848.0,0.229116
850.0,0.229279
852.0,0.229694
854.0,0.229931
856.0,0.230117
858.0,0.230446
860.0,0.230768
862.0,0.230968
864.0,0.231187
866.0,0.231306
868.0,0.231711
870.0,0.2318
872.0,0.232052
874.0,0.232298
876.0,0.232601
878.0,0.232759
880.0,0.233085
882.0,0.233247
884.0,0.233414
886.0,0.233855
888.0,0.234166
890.0,0.234313
892.0,0.234616
894.0,0.234816
896.0,0.234939
898.0,0.235087
900.0,0.235137
902.0,0.235772
904.0,0.235994
906.0,0.236005
908.0,0.236228
910.0,0.236619
912.0,0.236513
914.0,0.236631
916.0,0.237282
918.0,0.237389
920.0,0.237457
922.0,0.237614
924.0,0.237973
926.0,0.238222
928.0,0.238008
930.0,0.23752
932.0,0.236233
934.0,0.236452
936.0,0.235906
938.0,0.23697
940.0,0.237063
942.0,0.237271
944.0,0.236916
946.0,0.238186
948.0,0.237654
950.0,0.23839
952.0,0.238832
954.0,0.239037
956.0,0.239474
958.0,0.238814
960.0,0.239557
962.0,0.240244
964.0,0.240485
966.0,0.241281
968.0,0.24164
970.0,0.241295
972.0,0.241972
974.0,0.241504
976.0,0.241778
978.0,0.241719
980.0,0.241756
982.0,0.242522
984.0,0.243114
986.0,0.243043
988.0,0.242611
990.0,0.243319
992.0,0.242862
994.0,0.243538
996.0,0.243464
998.0,0.244404
1000.0,0.24343
1002.0,0.247864
1004.0,0.247511
1006.0,0.247331
1008.0,0.247508
1010.0,0.24807
1012.0,0.247992
1014.0,0.248152
1016.0,0.248252
1018.0,0.248616
1020.0,0.248786
1022.0,0.248558
1024.0,0.248361
1026.0,0.248656
1028.0,0.249009
1030.0,0.249515
1032.0,0.249414
1034.0,0.249347
1036.0,0.249266
1038.0,0.249381
1040.0,0.249969
1042.0,0.250183
1044.0,0.249968
1046.0,0.249764
1048.0,0.249767
1050.0,0.250252
1052.0,0.250533
1054.0,0.250818
1056.0,0.25109
1058.0,0.250867
1060.0,0.250866
1062.0,0.250932
1064.0,0.251061
1066.0,0.251042
1068.0,0.250655
1070.0,0.250532
1072.0,0.250916
1074.0,0.251024
1076.0,0.251063
1078.0,0.251108
1080.0,0.251121
1082.0,0.251334
1084.0,0.251721
1086.0,0.251627
1088.0,0.251747
1090.0,0.252
1092.0,0.251948
1094.0,0.251695
1096.0,0.251742
1098.0,0.252096
1100.0,0.252196
1102.0,0.252117
1104.0,0.252216
1106.0,0.252654
1108.0,0.252632
1110.0,0.252609
1112.0,0.252815
1114.0,0.252584
1116.0,0.252226
1118.0,0.252185
1120.0,0.251452
1122.0,0.251298
1124.0,0.251117
1126.0,0.251514
1128.0,0.252236
1130.0,0.252105
1132.0,0.251876
1134.0,0.251905
1136.0,0.252358
1138.0,0.253257
1140.0,0.253757
1142.0,0.253814
1144.0,0.253771
1146.0,0.253723
1148.0,0.253598
1150.0,0.253622
1152.0,0.253773
1154.0,0.254093
1156.0,0.254635
1158.0,0.255087
1160.0,0.255096
1162.0,0.254775
1164.0,0.254867
1166.0,0.255447
1168.0,0.255723
1170.0,0.255883
1172.0,0.256112
1174.0,0.256232
1176.0,0.256039
1178.0,0.256221
1180.0,0.256645
1182.0,0.256647
1184.0,0.25679
1186.0,0.257141
1188.0,0.257125
1190.0,0.257255
1192.0,0.25762
1194.0,0.257732
1196.0,0.257769
1198.0,0.257962
1200.0,0.25778
1202.0,0.257482
1204.0,0.257671
1206.0,0.257842
1208.0,0.257943
1210.0,0.258229
1212.0,0.258253
1214.0,0.258259
1216.0,0.258316
1218.0,0.258235
1220.0,0.258208
1222.0,0.258202
1224.0,0.258175
1226.0,0.25815
1228.0,0.258421
1230.0,0.25846
1232.0,0.258353
1234.0,0.257992
1236.0,0.257947
1238.0,0.257917
1240.0,0.257668
1242.0,0.257792
1244.0,0.258037
1246.0,0.258095
1248.0,0.258157
1250.0,0.258324
1252.0,0.25863
1254.0,0.258581
1256.0,0.258475
1258.0,0.258701
1260.0,0.258615
1262.0,0.258623
1264.0,0.258357
1266.0,0.258113
1268.0,0.258117
1270.0,0.258061
1272.0,0.258026
1274.0,0.25806
1276.0,0.258171
1278.0,0.258243
1280.0,0.258295
1282.0,0.258383
1284.0,0.258425
1286.0,0.258484
1288.0,0.258816
1290.0,0.258762
1292.0,0.25851
1294.0,0.258616
1296.0,0.258727
1298.0,0.258504
1300.0,0.258473
1302.0,0.258659
1304.0,0.258797
1306.0,0.258665
1308.0,0.258647
1310.0,0.258879
1312.0,0.25901
1314.0,0.258952
1316.0,0.258747
1318.0,0.258723
1320.0,0.258743
1322.0,0.258917
1324.0,0.259219
1326.0,0.259468
1328.0,0.259763
1330.0,0.25967
1332.0,0.25913
1334.0,0.259076
1336.0,0.259424
1338.0,0.260194
1340.0,0.260399
1342.0,0.2608
1344.0,0.261592
1346.0,0.26139
1348.0,0.260673
1350.0,0.259856
1352.0,0.258567
1354.0,0.260316
1356.0,0.262817
1358.0,0.257032
1360.0,0.246611
1362.0,0.295096
1364.0,0.323514
1366.0,0.161137
1368.0,0.0662996
1370.0,0.13477
1372.0,0.273981
1374.0,0.473705
1376.0,0.342684
1378.0,0.273113
1380.0,0.298646
1382.0,0.316086
1384.0,0.307324
1386.0,0.312924
1388.0,0.275218
1390.0,0.288353
1392.0,0.281988
1394.0,0.266162
1396.0,0.263995
1398.0,0.258308
1400.0,0.266591
1402.0,0.271143
1404.0,0.259979
1406.0,0.251173
1408.0,0.251936
1410.0,0.256925
1412.0,0.257446
1414.0,0.256576
1416.0,0.255169
1418.0,0.252578
1420.0,0.254109
1422.0,0.256978
1424.0,0.257559
1426.0,0.257649
1428.0,0.258497
1430.0,0.26025
1432.0,0.261835
1434.0,0.261795
1436.0,0.260247
1438.0,0.258625
1440.0,0.258994
1442.0,0.260883
1444.0,0.260873
1446.0,0.261012
1448.0,0.261648
1450.0,0.26195
1452.0,0.262052
1454.0,0.262847
1456.0,0.263464
1458.0,0.263782
1460.0,0.264389
1462.0,0.264981
1464.0,0.265429
1466.0,0.264908
1468.0,0.263712
1470.0,0.263813
1472.0,0.264533
1474.0,0.26466
1476.0,0.265101
1478.0,0.265912
1480.0,0.265752
1482.0,0.265849
1484.0,0.266322
1486.0,0.266263
1488.0,0.267059
1490.0,0.267396
1492.0,0.267593
1494.0,0.267817
1496.0,0.268209
1498.0,0.268982
1500.0,0.268941
1502.0,0.268268
1504.0,0.267981
1506.0,0.268405
1508.0,0.268488
1510.0,0.268338
1512.0,0.268247
1514.0,0.268128
1516.0,0.26835
1518.0,0.268473
1520.0,0.268597
1522.0,0.268741
1524.0,0.268468
1526.0,0.268683
1528.0,0.268976
1530.0,0.268966
1532.0,0.268763
1534.0,0.268583
1536.0,0.268523
1538.0,0.268731
1540.0,0.268497
1542.0,0.268371
1544.0,0.268232
1546.0,0.268146
1548.0,0.268233
1550.0,0.268391
1552.0,0.268466
1554.0,0.268425
1556.0,0.26833
1558.0,0.268487
1560.0,0.268376
1562.0,0.26804
1564.0,0.267873
1566.0,0.268103
1568.0,0.268325
1570.0,0.267947
1572.0,0.267589
1574.0,0.26798
1576.0,0.268092
1578.0,0.268009
1580.0,0.267767
1582.0,0.267265
1584.0,0.267471
1586.0,0.268053
1588.0,0.267734
1590.0,0.267193
1592.0,0.267057
1594.0,0.267041
1596.0,0.267254
1598.0,0.267423
1600.0,0.2672
1602.0,0.266857
1604.0,0.266529
1606.0,0.26653
1608.0,0.266848
1610.0,0.267112
1612.0,0.266631
1614.0,0.265509
1616.0,0.265529
1618.0,0.265866
1620.0,0.26572
1622.0,0.265486
1624.0,0.265505
1626.0,0.26596
1628.0,0.266075
1630.0,0.265911
1632.0,0.265761
1634.0,0.265537
1636.0,0.265144
1638.0,0.265151
1640.0,0.264899
1642.0,0.264665
1644.0,0.264726
1646.0,0.264706
1648.0,0.264753
1650.0,0.26517
1652.0,0.265438
1654.0,0.265368
1656.0,0.265064
1658.0,0.265319
1660.0,0.265278
1662.0,0.264898
1664.0,0.264847
1666.0,0.264573
1668.0,0.26519
1670.0,0.265691
1672.0,0.264812
1674.0,0.264277
1676.0,0.264762
1678.0,0.265226
1680.0,0.265139
1682.0,0.264731
1684.0,0.265191
1686.0,0.265582
1688.0,0.265791
1690.0,0.265552
1692.0,0.265519
1694.0,0.26627
1696.0,0.265899
1698.0,0.26571
1700.0,0.266008
1702.0,0.265878
1704.0,0.26666
1706.0,0.266741
1708.0,0.26642
1710.0,0.266108
1712.0,0.265835
1714.0,0.265694
1716.0,0.265254
1718.0,0.264846
1720.0,0.26527
1722.0,0.265244
1724.0,0.265075
1726.0,0.265409
1728.0,0.265003
1730.0,0.264842
1732.0,0.265201
1734.0,0.265262
1736.0,0.264948
1738.0,0.265366
1740.0,0.265293
1742.0,0.266631
1744.0,0.267269
1746.0,0.266157
1748.0,0.265846
1750.0,0.265787
1752.0,0.266076
1754.0,0.26593
1756.0,0.264401
1758.0,0.264615
1760.0,0.266041
1762.0,0.266419
1764.0,0.266043
1766.0,0.265096
1768.0,0.265444
1770.0,0.26489
1772.0,0.264263
1774.0,0.265135
1776.0,0.26577
1778.0,0.26563
1780.0,0.264457
1782.0,0.264215
1784.0,0.264746
1786.0,0.263626
1788.0,0.264116
1790.0,0.264239
1792.0,0.26316
1794.0,0.263285
1796.0,0.263323
1798.0,0.262397
1800.0,0.263063
1802.0,0.260598
1804.0,0.260629
1806.0,0.265382
1808.0,0.268421
1810.0,0.275417
1812.0,0.275178
1814.0,0.288454
1816.0,0.287968
1818.0,0.277024
1820.0,0.236142
1822.0,0.226279
1824.0,0.247637
1826.0,0.2952
1828.0,0.326966
1830.0,0.359113
1832.0,0.473962
1834.0,0.0
1836.0,0.0
1838.0,0.0
1840.0,0.725406
1842.0,0.593457
1844.0,0.211597
1846.0,0.399264
1848.0,0.821996
1850.0,1.0
1852.0,0.663062
1854.0,0.335819
1856.0,0.638725
1858.0,0.416803
1860.0,0.413788
1862.0,1.0
1864.0,0.5331
1866.0,0.293756
1868.0,0.750961
1870.0,0.709787
1872.0,0.835781
1874.0,0.0
1876.0,0.0
1878.0,1.0
1880.0,0.845893
1882.0,0.509321
1884.0,0.211768
1886.0,0.195495
1888.0,0.203519
1890.0,0.163541
1892.0,0.18562
1894.0,0.23814
1896.0,0.26751
1898.0,0.264636
1900.0,0.187187
1902.0,0.32374
1904.0,0.474457
1906.0,0.417895
1908.0,0.309641
1910.0,0.800608
1912.0,1.0
1914.0,0.276031
1916.0,0.446902
1918.0,0.398601
1920.0,0.269889
1922.0,0.273043
1924.0,0.298153
1926.0,0.309348
1928.0,0.246401
1930.0,0.222683
1932.0,0.262167
1934.0,0.265674
1936.0,0.247093
1938.0,0.264552
1940.0,0.2743
1942.0,0.273214
1944.0,0.275975
1946.0,0.276362
1948.0,0.266106
1950.0,0.257189
1952.0,0.258948
1954.0,0.25798
1956.0,0.262172
1958.0,0.270147
1960.0,0.274273
1962.0,0.271169
1964.0,0.264498
1966.0,0.260855
1968.0,0.260821
1970.0,0.261336
1972.0,0.260773
1974.0,0.264852
1976.0,0.266708
1978.0,0.264111
1980.0,0.261656
1982.0,0.263113
1984.0,0.264639
1986.0,0.264389
1988.0,0.263413
1990.0,0.260939
1992.0,0.261309
1994.0,0.262857
1996.0,0.26616
1998.0,0.269349
2000.0,0.273462
2002.0,0.276777
2004.0,0.281423
2006.0,0.280952
2008.0,0.277699
2010.0,0.276227
2012.0,0.269139
2014.0,0.267488
2016.0,0.267206
2018.0,0.269511
2020.0,0.268268
2022.0,0.268314
2024.0,0.270127
2026.0,0.271017
2028.0,0.268805
2030.0,0.265728
2032.0,0.264453
2034.0,0.264166
2036.0,0.264355
2038.0,0.264679
2040.0,0.265555
2042.0,0.267953
2044.0,0.269947
2046.0,0.271846
2048.0,0.272708
2050.0,0.272658
2052.0,0.272264
2054.0,0.270232
2056.0,0.271092
2058.0,0.272398
2060.0,0.269025
2062.0,0.268071
2064.0,0.268752
2066.0,0.272012
2068.0,0.276336
2070.0,0.275967
2072.0,0.272617
2074.0,0.272913
2076.0,0.271949
2078.0,0.269968
2080.0,0.270017
2082.0,0.27005
2084.0,0.269678
2086.0,0.271322
2088.0,0.273911
2090.0,0.272364
2092.0,0.272017
2094.0,0.274572
2096.0,0.275892
2098.0,0.274585
2100.0,0.273038
2102.0,0.272913
2104.0,0.272325
2106.0,0.2726
2108.0,0.272939
2110.0,0.274587
2112.0,0.275063
2114.0,0.27526
2116.0,0.273764
2118.0,0.272356
2120.0,0.27287
2122.0,0.273555
2124.0,0.273493
2126.0,0.271893
2128.0,0.27077
2130.0,0.269669
2132.0,0.270453
2134.0,0.271587
2136.0,0.272706
2138.0,0.2737
2140.0,0.273599
2142.0,0.272663
2144.0,0.273441
2146.0,0.274076
2148.0,0.273917
2150.0,0.271353
2152.0,0.269095
2154.0,0.26975
2156.0,0.269081
2158.0,0.266757
2160.0,0.266626
2162.0,0.267818
2164.0,0.268747
2166.0,0.269697
2168.0,0.270066
2170.0,0.26913
2172.0,0.266202
2174.0,0.263327
2176.0,0.263385
2178.0,0.265701
2180.0,0.266995
2182.0,0.266448
2184.0,0.264047
2186.0,0.262927
2188.0,0.26276
2190.0,0.262231
2192.0,0.260982
2194.0,0.259934
2196.0,0.258501
2198.0,0.257392
2200.0,0.256626
2202.0,0.25816
2204.0,0.258491
2206.0,0.257692
2208.0,0.25969
2210.0,0.261519
2212.0,0.260505
2214.0,0.257318
2216.0,0.256597
2218.0,0.258806
2220.0,0.261225
2222.0,0.262177
2224.0,0.261102
2226.0,0.259462
2228.0,0.257391
2230.0,0.254468
2232.0,0.253219
2234.0,0.25385
2236.0,0.255858
2238.0,0.256691
2240.0,0.257291
2242.0,0.258476
2244.0,0.259388
2246.0,0.260404
2248.0,0.260502
2250.0,0.259566
2252.0,0.25696
2254.0,0.253836
2256.0,0.254724
2258.0,0.258321
2260.0,0.261251
2262.0,0.262892
2264.0,0.262774
2266.0,0.261809
2268.0,0.262724
2270.0,0.262907
2272.0,0.260864
2274.0,0.260208
2276.0,0.260072
2278.0,0.260086
2280.0,0.260684
2282.0,0.26362
2284.0,0.263311
2286.0,0.25887
2288.0,0.253556
2290.0,0.255458
2292.0,0.25988
2294.0,0.259099
2296.0,0.257108
2298.0,0.256101
2300.0,0.254126
2302.0,0.252726
2304.0,0.249241
2306.0,0.24924
2308.0,0.254837
2310.0,0.257383
2312.0,0.256232
2314.0,0.257589
2316.0,0.256748
2318.0,0.255214
2320.0,0.256441
2322.0,0.253822
2324.0,0.25115
2326.0,0.250591
2328.0,0.25544
2330.0,0.252585
2332.0,0.249691
2334.0,0.251489
2336.0,0.256449
2338.0,0.257487
2340.0,0.257178
2342.0,0.26408
2344.0,0.267206
2346.0,0.261778
2348.0,0.259037
2350.0,0.255206
2352.0,0.251826
2354.0,0.255204
2356.0,0.261946
2358.0,0.264969
2360.0,0.265701
2362.0,0.264638
2364.0,0.26114
2366.0,0.256795
2368.0,0.260123
2370.0,0.260819
2372.0,0.255785
2374.0,0.257926
2376.0,0.260096
2378.0,0.251435
2380.0,0.247027
2382.0,0.257681
2384.0,0.275108
2386.0,0.281702
2388.0,0.262551
2390.0,0.244415
2392.0,0.244498
2394.0,0.25537
2396.0,0.260529
2398.0,0.263126
2400.0,0.271879
2402.0,0.283517
2404.0,0.279614
2406.0,0.268194
2408.0,0.266052
2410.0,0.256886
2412.0,0.237133
2414.0,0.237133
2416.0,0.245555
2418.0,0.248972
2420.0,0.251715
2422.0,0.25944
2424.0,0.264246
2426.0,0.263739
2428.0,0.260294
2430.0,0.261273
2432.0,0.262128
2434.0,0.246238
2436.0,0.245573
2438.0,0.247207
2440.0,0.252692
2442.0,0.269668
2444.0,0.280389
2446.0,0.330643
2448.0,0.293081
2450.0,0.252955
2452.0,0.260043
2454.0,0.239802
2456.0,0.241609
2458.0,0.263206
2460.0,0.275593
2462.0,0.27199
2464.0,0.28687
2466.0,0.302955
2468.0,0.282517
2470.0,0.259878
2472.0,0.264208
2474.0,0.291323
2476.0,0.303068
2478.0,0.365055
2480.0,0.349378
2482.0,0.268082
2484.0,0.249587
2486.0,0.240466
2488.0,0.219668
2490.0,0.372608
2492.0,0.607137
2494.0,0.314336
2496.0,0.543351
2498.0,0.970699
2500.0,0.424687