File: data/spectra_ascii/AsphaltTrockenVerschmutzung1___corthum00398.txt
Wavelength (nm),Reflectance
350.0,0.06344
352.0,0.0639281
354.0,0.0641501
356.0,0.0647334
358.0,0.0649929
360.0,0.0662827
362.0,0.0663123
364.0,0.0663957
366.0,0.0669203
368.0,0.0670855
370.0,0.0679052
372.0,0.0687646
374.0,0.0692653
376.0,0.0701876
378.0,0.0703432
380.0,0.0712011
382.0,0.0717977
384.0,0.0726051
386.0,0.0728284
388.0,0.0737542
390.0,0.0743989
392.0,0.0744961
394.0,0.0748466
396.0,0.0757228
398.0,0.0760796
400.0,0.0767465
402.0,0.0772359
404.0,0.0776143
406.0,0.0782967
408.0,0.0785985
410.0,0.07924
412.0,0.0797294
414.0,0.0802359
416.0,0.0808215
418.0,0.0814619
420.0,0.0819526
422.0,0.0824816
424.0,0.0831416
426.0,0.0835789
428.0,0.0842007
430.0,0.0848308
432.0,0.0854318
434.0,0.0860582
436.0,0.0866228
438.0,0.08715
440.0,0.0878306
442.0,0.088353
444.0,0.0889153
446.0,0.0894736
448.0,0.0899479
450.0,0.0905722
452.0,0.0910266
454.0,0.0916199
456.0,0.0920325
458.0,0.0925668
460.0,0.093044
462.0,0.0935468
464.0,0.0940505
466.0,0.0944379
468.0,0.0949614
470.0,0.0954718
472.0,0.0959538
474.0,0.0964517
476.0,0.0968752
478.0,0.0973283
480.0,0.0979283
482.0,0.0984453
484.0,0.0990396
486.0,0.0995974
488.0,0.100243
490.0,0.100797
492.0,0.101379
494.0,0.102033
496.0,0.102574
498.0,0.103225
500.0,0.103952
502.0,0.104598
504.0,0.105213
506.0,0.105944
508.0,0.106595
510.0,0.107237
512.0,0.107982
514.0,0.10865
516.0,0.109313
518.0,0.110161
520.0,0.110923
522.0,0.111651
524.0,0.112387
526.0,0.113219
528.0,0.114057
530.0,0.114869
532.0,0.115767
534.0,0.116704
536.0,0.117631
538.0,0.118544
540.0,0.11961
542.0,0.120648
544.0,0.121658
546.0,0.122718
548.0,0.123868
550.0,0.124993
552.0,0.126163
554.0,0.12739
556.0,0.1286
558.0,0.129862
560.0,0.131066
562.0,0.132315
564.0,0.133498
566.0,0.134665
568.0,0.135862
570.0,0.137089
572.0,0.138206
574.0,0.139375
576.0,0.140464
578.0,0.141627
580.0,0.142745
582.0,0.143809
584.0,0.144854
586.0,0.145852
588.0,0.146901
590.0,0.147879
592.0,0.14882
594.0,0.149676
596.0,0.150612
598.0,0.151468
600.0,0.152328
602.0,0.153163
604.0,0.153988
606.0,0.154865
608.0,0.155732
610.0,0.156533
612.0,0.157375
614.0,0.158245
616.0,0.159072
618.0,0.159859
620.0,0.160576
622.0,0.16139
624.0,0.162188
626.0,0.16302
628.0,0.163834
630.0,0.16466
632.0,0.16547
634.0,0.166246
636.0,0.167062
638.0,0.167804
640.0,0.168535
642.0,0.169349
644.0,0.170145
646.0,0.170925
648.0,0.171735
650.0,0.17254
652.0,0.173308
654.0,0.173986
656.0,0.174777
658.0,0.175607
660.0,0.176299
662.0,0.177061
664.0,0.177822
666.0,0.178561
668.0,0.179282
670.0,0.180059
672.0,0.180773
674.0,0.18144
676.0,0.18229
678.0,0.182974
680.0,0.183743
682.0,0.18443
684.0,0.185156
686.0,0.185967
688.0,0.186763
690.0,0.187522
692.0,0.188179
694.0,0.188935
696.0,0.189674
698.0,0.190373
700.0,0.191087
702.0,0.191842
704.0,0.192559
706.0,0.19325
708.0,0.193934
710.0,0.194691
712.0,0.195412
714.0,0.196199
716.0,0.197015
718.0,0.197882
720.0,0.198636
722.0,0.19937
724.0,0.200096
726.0,0.200931
728.0,0.201732
730.0,0.2025
732.0,0.203233
734.0,0.203978
736.0,0.204761
738.0,0.205574
740.0,0.206377
742.0,0.207136
744.0,0.207972
746.0,0.208776
748.0,0.209596
750.0,0.210457
752.0,0.211265
754.0,0.212116
756.0,0.212934
758.0,0.213879
760.0,0.214426
762.0,0.215515
764.0,0.21644
766.0,0.217364
768.0,0.217993
770.0,0.2187
772.0,0.219525
774.0,0.220289
776.0,0.221016
778.0,0.221887
780.0,0.222662
782.0,0.22342
784.0,0.224239
786.0,0.225025
788.0,0.2258
790.0,0.226729
792.0,0.227489
794.0,0.228336
796.0,0.229093
798.0,0.229838
800.0,0.230594
802.0,0.231419
804.0,0.232144
806.0,0.232906
808.0,0.233638
810.0,0.234426
812.0,0.235335
814.0,0.236116
816.0,0.236853
818.0,0.237658
820.0,0.238295
822.0,0.239142
824.0,0.23978
826.0,0.240403
828.0,0.241233
830.0,0.242018
832.0,0.242687
834.0,0.243325
836.0,0.244101
838.0,0.244806
840.0,0.245351
842.0,0.246061
844.0,0.246686
846.0,0.247471
848.0,0.248214
850.0,0.248839
852.0,0.249491
854.0,0.250198
856.0,0.250906
858.0,0.251432
860.0,0.252221
862.0,0.252892
864.0,0.253376
866.0,0.254134
868.0,0.254655
870.0,0.255363
872.0,0.256001
874.0,0.256697
876.0,0.257315
878.0,0.25794
880.0,0.258533
882.0,0.259213
884.0,0.259809
886.0,0.260492
888.0,0.261041
890.0,0.261635
892.0,0.262432
894.0,0.262828
896.0,0.263508
898.0,0.264163
900.0,0.264951
902.0,0.265505
904.0,0.266184
906.0,0.266749
908.0,0.267395
910.0,0.267547
912.0,0.268351
914.0,0.26892
916.0,0.269299
918.0,0.270237
920.0,0.270645
922.0,0.271412
924.0,0.271546
926.0,0.271968
928.0,0.272905
930.0,0.272217
932.0,0.272164
934.0,0.271527
936.0,0.272618
938.0,0.27433
940.0,0.274057
942.0,0.275651
944.0,0.274784
946.0,0.275597
948.0,0.27719
950.0,0.276453
952.0,0.277174
954.0,0.278484
956.0,0.278932
958.0,0.27971
960.0,0.279833
962.0,0.280778
964.0,0.281896
966.0,0.281973
968.0,0.282265
970.0,0.283078
972.0,0.284044
974.0,0.2834
976.0,0.284409
978.0,0.284918
980.0,0.285348
982.0,0.286479
984.0,0.286624
986.0,0.286396
988.0,0.286796
990.0,0.287343
992.0,0.28777
994.0,0.28762
996.0,0.288278
998.0,0.28888
1000.0,0.288757
1002.0,0.294129
1004.0,0.294965
1006.0,0.295487
1008.0,0.295588
1010.0,0.295749
1012.0,0.296958
1014.0,0.297098
1016.0,0.296915
1018.0,0.296778
1020.0,0.297273
1022.0,0.297571
1024.0,0.297756
1026.0,0.298231
1028.0,0.298552
1030.0,0.298806
1032.0,0.299079
1034.0,0.298969
1036.0,0.298716
1038.0,0.299501
1040.0,0.300045
1042.0,0.300266
1044.0,0.300734
1046.0,0.300825
1048.0,0.301415
1050.0,0.302135
1052.0,0.302269
1054.0,0.301978
1056.0,0.301839
1058.0,0.302169
1060.0,0.303104
1062.0,0.303184
1064.0,0.303338
1066.0,0.30408
1068.0,0.304693
1070.0,0.304665
1072.0,0.304613
1074.0,0.305013
1076.0,0.305145
1078.0,0.305552
1080.0,0.305885
1082.0,0.306302
1084.0,0.306189
1086.0,0.306241
1088.0,0.307018
1090.0,0.307378
1092.0,0.307989
1094.0,0.308366
1096.0,0.308517
1098.0,0.308359
1100.0,0.308374
1102.0,0.308396
1104.0,0.308604
1106.0,0.30879
1108.0,0.309027
1110.0,0.309562
1112.0,0.309596
1114.0,0.309862
1116.0,0.31028
1118.0,0.310543
1120.0,0.31037
1122.0,0.310745
1124.0,0.310143
1126.0,0.309903
1128.0,0.310369
1130.0,0.311609
1132.0,0.312144
1134.0,0.311927
1136.0,0.312155
1138.0,0.313003
1140.0,0.31353
1142.0,0.313866
1144.0,0.314477
1146.0,0.314551
1148.0,0.314658
1150.0,0.315021
1152.0,0.315941
1154.0,0.316218
1156.0,0.316346
1158.0,0.316164
1160.0,0.3163
1162.0,0.316882
1164.0,0.317188
1166.0,0.317168
1168.0,0.317064
1170.0,0.31746
1172.0,0.317944
1174.0,0.318324
1176.0,0.318621
1178.0,0.318719
1180.0,0.318636
1182.0,0.318795
1184.0,0.319093
1186.0,0.31931
1188.0,0.31948
1190.0,0.319647
1192.0,0.319902
1194.0,0.32022
1196.0,0.320604
1198.0,0.320684
1200.0,0.320625
1202.0,0.320673
1204.0,0.320783
1206.0,0.321085
1208.0,0.32167
1210.0,0.321892
1212.0,0.321714
1214.0,0.322054
1216.0,0.322029
1218.0,0.321888
1220.0,0.322039
1222.0,0.321972
1224.0,0.322085
1226.0,0.322199
1228.0,0.322481
1230.0,0.322795
1232.0,0.322766
1234.0,0.32292
1236.0,0.323073
1238.0,0.323032
1240.0,0.322915
1242.0,0.322955
1244.0,0.322896
1246.0,0.323017
1248.0,0.323356
1250.0,0.323641
1252.0,0.323604
1254.0,0.323379
1256.0,0.323432
1258.0,0.32324
1260.0,0.322921
1262.0,0.322997
1264.0,0.323584
1266.0,0.323871
1268.0,0.324411
1270.0,0.324417
1272.0,0.324455
1274.0,0.324509
1276.0,0.32505
1278.0,0.325267
1280.0,0.325083
1282.0,0.325286
1284.0,0.325421
1286.0,0.325512
1288.0,0.325946
1290.0,0.326112
1292.0,0.326085
1294.0,0.326124
1296.0,0.326533
1298.0,0.326693
1300.0,0.326929
1302.0,0.327323
1304.0,0.327195
1306.0,0.326911
1308.0,0.327028
1310.0,0.327305
1312.0,0.327649
1314.0,0.328066
1316.0,0.328236
1318.0,0.32819
1320.0,0.327905
1322.0,0.328004
1324.0,0.328158
1326.0,0.328348
1328.0,0.328733
1330.0,0.329105
1332.0,0.328983
1334.0,0.328934
1336.0,0.3293
1338.0,0.329409
1340.0,0.32989
1342.0,0.329682
1344.0,0.329665
1346.0,0.329921
1348.0,0.328649
1350.0,0.326791
1352.0,0.326423
1354.0,0.326027
1356.0,0.328437
1358.0,0.340834
1360.0,0.379264
1362.0,0.398181
1364.0,0.29795
1366.0,0.180693
1368.0,0.153227
1370.0,0.234245
1372.0,0.315551
1374.0,0.377082
1376.0,0.373374
1378.0,0.325943
1380.0,0.262333
1382.0,0.258844
1384.0,0.296396
1386.0,0.296198
1388.0,0.290534
1390.0,0.280138
1392.0,0.284891
1394.0,0.286458
1396.0,0.294341
1398.0,0.296804
1400.0,0.284284
1402.0,0.294398
1404.0,0.305741
1406.0,0.312658
1408.0,0.314247
1410.0,0.315765
1412.0,0.317756
1414.0,0.317635
1416.0,0.319422
1418.0,0.321509
1420.0,0.319932
1422.0,0.319602
1424.0,0.32072
1426.0,0.322873
1428.0,0.324656
1430.0,0.325069
1432.0,0.324796
1434.0,0.324775
1436.0,0.325336
1438.0,0.325007
1440.0,0.323098
1442.0,0.322858
1444.0,0.324533
1446.0,0.325406
1448.0,0.324765
1450.0,0.324399
1452.0,0.325095
1454.0,0.325719
1456.0,0.326508
1458.0,0.326895
1460.0,0.326465
1462.0,0.325662
1464.0,0.326374
1466.0,0.326705
1468.0,0.326751
1470.0,0.327043
1472.0,0.327078
1474.0,0.32779
1476.0,0.327916
1478.0,0.327428
1480.0,0.327121
1482.0,0.328361
1484.0,0.3297
1486.0,0.329467
1488.0,0.329359
1490.0,0.330039
1492.0,0.330563
1494.0,0.330717
1496.0,0.330508
1498.0,0.330521
1500.0,0.330646
1502.0,0.330572
1504.0,0.330601
1506.0,0.330877
1508.0,0.331102
1510.0,0.331148
1512.0,0.331291
1514.0,0.331453
1516.0,0.331495
1518.0,0.331476
1520.0,0.33139
1522.0,0.331491
1524.0,0.332039
1526.0,0.332805
1528.0,0.333112
1530.0,0.332833
1532.0,0.33263
1534.0,0.333026
1536.0,0.333119
1538.0,0.333125
1540.0,0.333173
1542.0,0.333296
1544.0,0.33327
1546.0,0.333359
1548.0,0.333223
1550.0,0.333576
1552.0,0.333679
1554.0,0.33343
1556.0,0.333216
1558.0,0.33346
1560.0,0.333819
1562.0,0.334197
1564.0,0.334299
1566.0,0.33394
1568.0,0.333964
1570.0,0.333727
1572.0,0.333009
1574.0,0.333261
1576.0,0.333777
1578.0,0.333988
1580.0,0.334572
1582.0,0.335007
1584.0,0.334849
1586.0,0.334929
1588.0,0.335109
1590.0,0.334928
1592.0,0.335058
1594.0,0.334896
1596.0,0.334548
1598.0,0.33488
1600.0,0.334997
1602.0,0.334917
1604.0,0.335223
1606.0,0.335593
1608.0,0.335228
1610.0,0.334889
1612.0,0.334952
1614.0,0.335127
1616.0,0.334985
1618.0,0.335102
1620.0,0.335415
1622.0,0.33499
1624.0,0.334644
1626.0,0.334806
1628.0,0.334458
1630.0,0.334332
1632.0,0.334729
1634.0,0.334367
1636.0,0.334424
1638.0,0.334522
1640.0,0.334403
1642.0,0.334186
1644.0,0.334084
1646.0,0.333959
1648.0,0.333516
1650.0,0.333708
1652.0,0.333825
1654.0,0.333799
1656.0,0.333367
1658.0,0.333054
1660.0,0.333292
1662.0,0.333437
1664.0,0.333193
1666.0,0.332719
1668.0,0.332428
1670.0,0.332746
1672.0,0.33362
1674.0,0.333678
1676.0,0.333571
1678.0,0.333979
1680.0,0.334357
1682.0,0.334232
1684.0,0.335152
1686.0,0.335743
1688.0,0.33475
1690.0,0.334339
1692.0,0.334734
1694.0,0.335597
1696.0,0.335427
1698.0,0.334988
1700.0,0.335302
1702.0,0.335724
1704.0,0.334995
1706.0,0.334521
1708.0,0.335465
1710.0,0.336431
1712.0,0.33628
1714.0,0.335533
1716.0,0.335328
1718.0,0.335415
1720.0,0.336028
1722.0,0.33589
1724.0,0.335109
1726.0,0.335578
1728.0,0.336241
1730.0,0.335251
1732.0,0.335147
1734.0,0.335763
1736.0,0.334772
1738.0,0.334875
1740.0,0.335632
1742.0,0.335549
1744.0,0.335677
1746.0,0.334847
1748.0,0.334099
1750.0,0.334859
1752.0,0.335578
1754.0,0.335363
1756.0,0.335223
1758.0,0.335223
1760.0,0.335046
1762.0,0.334896
1764.0,0.334925
1766.0,0.335825
1768.0,0.335279
1770.0,0.334694
1772.0,0.335035
1774.0,0.335419
1776.0,0.335735
1778.0,0.335311
1780.0,0.334858
1782.0,0.334351
1784.0,0.334162
1786.0,0.334078
1788.0,0.335044
1790.0,0.3347
1792.0,0.334107
1794.0,0.333674
1796.0,0.331898
1798.0,0.332792
1800.0,0.334071
1802.0,0.339623
1804.0,0.341504
1806.0,0.334112
1808.0,0.324638
1810.0,0.341636
1812.0,0.349938
1814.0,0.33868
1816.0,0.346235
1818.0,0.393248
1820.0,0.427906
1822.0,0.370016
1824.0,0.354763
1826.0,0.385531
1828.0,0.42256
1830.0,0.403261
1832.0,0.304514
1834.0,0.358776
1836.0,1.0
1838.0,1.0
1840.0,0.846304
1842.0,1.0
1844.0,0.0
1846.0,0.0
1848.0,0.0
1850.0,0.0
1852.0,0.566525
1854.0,0.33596
1856.0,0.309304
1858.0,1.0
1860.0,0.593403
1862.0,0.439279
1864.0,0.291831
1866.0,0.353152
1868.0,1.0
1870.0,1.0
1872.0,0.248506
1874.0,0.386426
1876.0,0.540531
1878.0,0.650045
1880.0,0.452374
1882.0,0.451452
1884.0,0.337885
1886.0,0.321515
1888.0,0.421991
1890.0,0.653536
1892.0,0.508368
1894.0,0.466917
1896.0,0.477747
1898.0,0.314603
1900.0,0.181823
1902.0,0.354868
1904.0,0.433957
1906.0,0.522843
1908.0,0.356701
1910.0,0.260446
1912.0,0.684437
1914.0,1.0
1916.0,0.569011
1918.0,0.389381
1920.0,0.354703
1922.0,0.342111
1924.0,0.360313
1926.0,0.328928
1928.0,0.292135
1930.0,0.296167
1932.0,0.306249
1934.0,0.322583
1936.0,0.33119
1938.0,0.32422
1940.0,0.310551
1942.0,0.309622
1944.0,0.309497
1946.0,0.306648
1948.0,0.308218
1950.0,0.310301
1952.0,0.311164
1954.0,0.303217
1956.0,0.314188
1958.0,0.315941
1960.0,0.29935
1962.0,0.306096
1964.0,0.316187
1966.0,0.315806
1968.0,0.314863
1970.0,0.310646
1972.0,0.311851
1974.0,0.315406
1976.0,0.31465
1978.0,0.315446
1980.0,0.317694
1982.0,0.317757
1984.0,0.318659
1986.0,0.319663
1988.0,0.318865
1990.0,0.319572
1992.0,0.319146
1994.0,0.317327
1996.0,0.316693
1998.0,0.318778
2000.0,0.319095
2002.0,0.327508
2004.0,0.335102
2006.0,0.341551
2008.0,0.330228
2010.0,0.321273
2012.0,0.32363
2014.0,0.329253
2016.0,0.3277
2018.0,0.332159
2020.0,0.335172
2022.0,0.330885
2024.0,0.324615
2026.0,0.323461
2028.0,0.323138
2030.0,0.323998
2032.0,0.324021
2034.0,0.324168
2036.0,0.324848
2038.0,0.326026
2040.0,0.326232
2042.0,0.326323
2044.0,0.326716
2046.0,0.325781
2048.0,0.325696
2050.0,0.327716
2052.0,0.328872
2054.0,0.327882
2056.0,0.328385
2058.0,0.32864
2060.0,0.328196
2062.0,0.326764
2064.0,0.325539
2066.0,0.326371
2068.0,0.329302
2070.0,0.328943
2072.0,0.325093
2074.0,0.323055
2076.0,0.327703
2078.0,0.332586
2080.0,0.331874
2082.0,0.330012
2084.0,0.3316
2086.0,0.332041
2088.0,0.330494
2090.0,0.331546
2092.0,0.33096
2094.0,0.329118
2096.0,0.327025
2098.0,0.328575
2100.0,0.32882
2102.0,0.328961
2104.0,0.329546
2106.0,0.330747
2108.0,0.331579
2110.0,0.332681
2112.0,0.332732
2114.0,0.332245
2116.0,0.330117
2118.0,0.329572
2120.0,0.33202
2122.0,0.331973
2124.0,0.333379
2126.0,0.334289
2128.0,0.334937
2130.0,0.335503
2132.0,0.334455
2134.0,0.331535
2136.0,0.330488
2138.0,0.332121
2140.0,0.333533
2142.0,0.334248
2144.0,0.333722
2146.0,0.330998
2148.0,0.329515
2150.0,0.330089
2152.0,0.33077
2154.0,0.329972
2156.0,0.330577
2158.0,0.330884
2160.0,0.329955
2162.0,0.330287
2164.0,0.330154
2166.0,0.329806
2168.0,0.330006
2170.0,0.331368
2172.0,0.328883
2174.0,0.326359
2176.0,0.325473
2178.0,0.325348
2180.0,0.325733
2182.0,0.326586
2184.0,0.326934
2186.0,0.325468
2188.0,0.324869
2190.0,0.324439
2192.0,0.325003
2194.0,0.323732
2196.0,0.322853
2198.0,0.325544
2200.0,0.325155
2202.0,0.321426
2204.0,0.321226
2206.0,0.319932
2208.0,0.317297
2210.0,0.317345
2212.0,0.318359
2214.0,0.319234
2216.0,0.31876
2218.0,0.317343
2220.0,0.318795
2222.0,0.322848
2224.0,0.32356
2226.0,0.322393
2228.0,0.320484
2230.0,0.321188
2232.0,0.32319
2234.0,0.322367
2236.0,0.320321
2238.0,0.32051
2240.0,0.31981
2242.0,0.317036
2244.0,0.317939
2246.0,0.320198
2248.0,0.320676
2250.0,0.318683
2252.0,0.318404
2254.0,0.316938
2256.0,0.317079
2258.0,0.316844
2260.0,0.317932
2262.0,0.320813
2264.0,0.321023
2266.0,0.317523
2268.0,0.313744
2270.0,0.315753
2272.0,0.317474
2274.0,0.315551
2276.0,0.311559
2278.0,0.30959
2280.0,0.311812
2282.0,0.317309
2284.0,0.317544
2286.0,0.315189
2288.0,0.315137
2290.0,0.311034
2292.0,0.311619
2294.0,0.318498
2296.0,0.318275
2298.0,0.312274
2300.0,0.307063
2302.0,0.3047
2304.0,0.306447
2306.0,0.314063
2308.0,0.318016
2310.0,0.318582
2312.0,0.317719
2314.0,0.312152
2316.0,0.31339
2318.0,0.317171
2320.0,0.3181
2322.0,0.320701
2324.0,0.323328
2326.0,0.318347
2328.0,0.313004
2330.0,0.315424
2332.0,0.321987
2334.0,0.319716
2336.0,0.313613
2338.0,0.317809
2340.0,0.316783
2342.0,0.312973
2344.0,0.310524
2346.0,0.305926
2348.0,0.307532
2350.0,0.314774
2352.0,0.315058
2354.0,0.310486
2356.0,0.31081
2358.0,0.316809
2360.0,0.319149
2362.0,0.31946
2364.0,0.317361
2366.0,0.31447
2368.0,0.312166
2370.0,0.31704
2372.0,0.322776
2374.0,0.321636
2376.0,0.315832
2378.0,0.312265
2380.0,0.314317
2382.0,0.315225
2384.0,0.324516
2386.0,0.332714
2388.0,0.320442
2390.0,0.311494
2392.0,0.315145
2394.0,0.315574
2396.0,0.312859
2398.0,0.313409
2400.0,0.320442
2402.0,0.323974
2404.0,0.311285
2406.0,0.306377
2408.0,0.306763
2410.0,0.308988
2412.0,0.324421
2414.0,0.348082
2416.0,0.350457
2418.0,0.324997
2420.0,0.302424
2422.0,0.303874
2424.0,0.315448
2426.0,0.314817
2428.0,0.304572
2430.0,0.301114
2432.0,0.305043
2434.0,0.312067
2436.0,0.297715
2438.0,0.293304
2440.0,0.299897
2442.0,0.285273
2444.0,0.281161
2446.0,0.316197
2448.0,0.360904
2450.0,0.34048
2452.0,0.328503
2454.0,0.286653
2456.0,0.275331
2458.0,0.32229
2460.0,0.32411
2462.0,0.310912
2464.0,0.31388
2466.0,0.311851
2468.0,0.30234
2470.0,0.307705
2472.0,0.338329
2474.0,0.380013
2476.0,0.38025
2478.0,0.326652
2480.0,0.303988
2482.0,0.315661
2484.0,0.521708
2486.0,0.707426
2488.0,0.31326
2490.0,0.212813
2492.0,0.330256
2494.0,0.326097
2496.0,0.238015
2498.0,0.20797
2500.0,0.313416