File: data/spectra_ascii/AsphaltTrockenVerschmutzung1___corthum00392.txt
Wavelength (nm),Reflectance
350.0,0.0748631
352.0,0.0758639
354.0,0.0758971
356.0,0.07669
358.0,0.0768243
360.0,0.0776427
362.0,0.078235
364.0,0.0785036
366.0,0.0792767
368.0,0.0795376
370.0,0.0802773
372.0,0.0810142
374.0,0.081926
376.0,0.0829968
378.0,0.0834678
380.0,0.084543
382.0,0.0851829
384.0,0.08612
386.0,0.0867452
388.0,0.0876857
390.0,0.0884461
392.0,0.0890839
394.0,0.0896352
396.0,0.0904317
398.0,0.0911808
400.0,0.0920288
402.0,0.0924895
404.0,0.0930439
406.0,0.0938109
408.0,0.0943969
410.0,0.0950708
412.0,0.0956975
414.0,0.0965152
416.0,0.0972442
418.0,0.0978898
420.0,0.0986829
422.0,0.0992423
424.0,0.100142
426.0,0.100879
428.0,0.101633
430.0,0.102511
432.0,0.103417
434.0,0.104256
436.0,0.105028
438.0,0.105765
440.0,0.106645
442.0,0.10742
444.0,0.108086
446.0,0.108743
448.0,0.109481
450.0,0.110197
452.0,0.110754
454.0,0.11147
456.0,0.112028
458.0,0.112634
460.0,0.113321
462.0,0.113894
464.0,0.114449
466.0,0.11489
468.0,0.115474
470.0,0.116121
472.0,0.116665
474.0,0.117249
476.0,0.117768
478.0,0.118323
480.0,0.119033
482.0,0.119715
484.0,0.120396
486.0,0.121092
488.0,0.121961
490.0,0.122609
492.0,0.123443
494.0,0.124279
496.0,0.125016
498.0,0.125842
500.0,0.126733
502.0,0.1275
504.0,0.128346
506.0,0.129215
508.0,0.130033
510.0,0.130845
512.0,0.131707
514.0,0.132592
516.0,0.133437
518.0,0.134384
520.0,0.135299
522.0,0.136289
524.0,0.137191
526.0,0.138121
528.0,0.139196
530.0,0.140193
532.0,0.141241
534.0,0.142427
536.0,0.143541
538.0,0.144744
540.0,0.146054
542.0,0.147372
544.0,0.148727
546.0,0.150112
548.0,0.151614
550.0,0.153132
552.0,0.154675
554.0,0.156315
556.0,0.157981
558.0,0.159614
560.0,0.16121
562.0,0.162876
564.0,0.164552
566.0,0.166144
568.0,0.167807
570.0,0.169371
572.0,0.170967
574.0,0.172502
576.0,0.173934
578.0,0.175399
580.0,0.176872
582.0,0.178302
584.0,0.179594
586.0,0.180926
588.0,0.182117
590.0,0.183242
592.0,0.184349
594.0,0.185366
596.0,0.186553
598.0,0.187492
600.0,0.188502
602.0,0.189442
604.0,0.190353
606.0,0.191251
608.0,0.192072
610.0,0.192918
612.0,0.193723
614.0,0.194548
616.0,0.195332
618.0,0.196114
620.0,0.196793
622.0,0.197527
624.0,0.198242
626.0,0.199026
628.0,0.199706
630.0,0.200484
632.0,0.201175
634.0,0.201837
636.0,0.20258
638.0,0.20329
640.0,0.204005
642.0,0.204667
644.0,0.205358
646.0,0.205954
648.0,0.206621
650.0,0.207302
652.0,0.207957
654.0,0.208567
656.0,0.209215
658.0,0.21009
660.0,0.210554
662.0,0.211245
664.0,0.211881
666.0,0.212428
668.0,0.213073
670.0,0.213714
672.0,0.214309
674.0,0.214835
676.0,0.215526
678.0,0.216112
680.0,0.216726
682.0,0.217302
684.0,0.217864
686.0,0.218452
688.0,0.218936
690.0,0.219593
692.0,0.220168
694.0,0.2207
696.0,0.221308
698.0,0.221942
700.0,0.222463
702.0,0.222969
704.0,0.22356
706.0,0.22413
708.0,0.224669
710.0,0.225225
712.0,0.225773
714.0,0.226349
716.0,0.22695
718.0,0.227431
720.0,0.228063
722.0,0.228716
724.0,0.22918
726.0,0.229788
728.0,0.230375
730.0,0.230931
732.0,0.231587
734.0,0.232224
736.0,0.23281
738.0,0.233443
740.0,0.234052
742.0,0.234623
744.0,0.235266
746.0,0.235855
748.0,0.236455
750.0,0.237091
752.0,0.237676
754.0,0.238276
756.0,0.238896
758.0,0.239655
760.0,0.239413
762.0,0.240054
764.0,0.240599
766.0,0.241641
768.0,0.242311
770.0,0.24284
772.0,0.243409
774.0,0.243956
776.0,0.244414
778.0,0.245031
780.0,0.2455
782.0,0.245995
784.0,0.246535
786.0,0.247023
788.0,0.247398
790.0,0.248034
792.0,0.248537
794.0,0.249022
796.0,0.249558
798.0,0.250019
800.0,0.250421
802.0,0.25089
804.0,0.251392
806.0,0.251896
808.0,0.252317
810.0,0.252749
812.0,0.253269
814.0,0.253567
816.0,0.253867
818.0,0.25444
820.0,0.254948
822.0,0.255363
824.0,0.25566
826.0,0.256141
828.0,0.25657
830.0,0.257022
832.0,0.2574
834.0,0.2578
836.0,0.258295
838.0,0.258709
840.0,0.259007
842.0,0.259402
844.0,0.259703
846.0,0.260209
848.0,0.260743
850.0,0.260925
852.0,0.261386
854.0,0.261762
856.0,0.26223
858.0,0.262479
860.0,0.262809
862.0,0.263266
864.0,0.263542
866.0,0.263878
868.0,0.264248
870.0,0.264613
872.0,0.265001
874.0,0.265429
876.0,0.265797
878.0,0.266222
880.0,0.266431
882.0,0.266784
884.0,0.267147
886.0,0.267719
888.0,0.267923
890.0,0.268323
892.0,0.268831
894.0,0.26886
896.0,0.269225
898.0,0.269324
900.0,0.269844
902.0,0.270198
904.0,0.270885
906.0,0.271202
908.0,0.271533
910.0,0.271644
912.0,0.271851
914.0,0.272309
916.0,0.272595
918.0,0.273159
920.0,0.273674
922.0,0.274149
924.0,0.274284
926.0,0.274252
928.0,0.275014
930.0,0.273917
932.0,0.273171
934.0,0.272074
936.0,0.273533
938.0,0.275216
940.0,0.274525
942.0,0.275004
944.0,0.275095
946.0,0.275706
948.0,0.276279
950.0,0.276187
952.0,0.276376
954.0,0.27726
956.0,0.277946
958.0,0.278972
960.0,0.279759
962.0,0.279534
964.0,0.280758
966.0,0.280631
968.0,0.280795
970.0,0.281338
972.0,0.282585
974.0,0.28235
976.0,0.282637
978.0,0.282675
980.0,0.283507
982.0,0.284327
984.0,0.284038
986.0,0.284148
988.0,0.284547
990.0,0.284152
992.0,0.285433
994.0,0.285011
996.0,0.284741
998.0,0.285636
1000.0,0.28601
1002.0,0.288928
1004.0,0.28957
1006.0,0.289991
1008.0,0.28998
1010.0,0.290033
1012.0,0.290971
1014.0,0.291091
1016.0,0.290781
1018.0,0.290905
1020.0,0.291486
1022.0,0.291823
1024.0,0.292256
1026.0,0.292749
1028.0,0.292567
1030.0,0.291923
1032.0,0.292111
1034.0,0.292727
1036.0,0.292728
1038.0,0.293023
1040.0,0.293103
1042.0,0.293083
1044.0,0.293352
1046.0,0.293322
1048.0,0.293587
1050.0,0.294091
1052.0,0.294344
1054.0,0.294349
1056.0,0.294306
1058.0,0.294114
1060.0,0.294447
1062.0,0.294569
1064.0,0.294648
1066.0,0.295265
1068.0,0.296008
1070.0,0.295978
1072.0,0.295546
1074.0,0.29553
1076.0,0.295399
1078.0,0.295864
1080.0,0.296267
1082.0,0.296992
1084.0,0.296558
1086.0,0.296487
1088.0,0.297314
1090.0,0.297311
1092.0,0.297535
1094.0,0.297686
1096.0,0.29765
1098.0,0.297371
1100.0,0.297563
1102.0,0.297371
1104.0,0.297223
1106.0,0.29757
1108.0,0.297709
1110.0,0.298282
1112.0,0.298374
1114.0,0.29852
1116.0,0.297958
1118.0,0.297537
1120.0,0.296984
1122.0,0.297416
1124.0,0.297715
1126.0,0.297121
1128.0,0.296838
1130.0,0.297853
1132.0,0.298991
1134.0,0.298667
1136.0,0.299026
1138.0,0.300245
1140.0,0.301054
1142.0,0.301491
1144.0,0.301588
1146.0,0.300838
1148.0,0.300427
1150.0,0.300855
1152.0,0.301996
1154.0,0.303114
1156.0,0.30382
1158.0,0.303813
1160.0,0.303984
1162.0,0.304089
1164.0,0.304092
1166.0,0.303972
1168.0,0.304168
1170.0,0.304767
1172.0,0.305338
1174.0,0.305624
1176.0,0.305787
1178.0,0.305702
1180.0,0.305823
1182.0,0.306112
1184.0,0.306469
1186.0,0.306697
1188.0,0.306848
1190.0,0.306814
1192.0,0.306982
1194.0,0.307252
1196.0,0.307596
1198.0,0.307678
1200.0,0.307772
1202.0,0.307837
1204.0,0.307856
1206.0,0.307971
1208.0,0.308367
1210.0,0.308501
1212.0,0.308305
1214.0,0.30843
1216.0,0.308336
1218.0,0.308127
1220.0,0.308358
1222.0,0.308488
1224.0,0.30861
1226.0,0.308701
1228.0,0.308911
1230.0,0.30899
1232.0,0.308958
1234.0,0.309073
1236.0,0.309175
1238.0,0.30909
1240.0,0.309036
1242.0,0.308912
1244.0,0.308775
1246.0,0.308898
1248.0,0.309176
1250.0,0.309558
1252.0,0.309738
1254.0,0.309433
1256.0,0.309111
1258.0,0.309079
1260.0,0.3091
1262.0,0.309108
1264.0,0.309352
1266.0,0.309266
1268.0,0.309376
1270.0,0.309417
1272.0,0.309466
1274.0,0.309641
1276.0,0.310004
1278.0,0.310335
1280.0,0.310222
1282.0,0.310244
1284.0,0.31048
1286.0,0.310464
1288.0,0.310639
1290.0,0.310666
1292.0,0.310651
1294.0,0.310777
1296.0,0.311009
1298.0,0.310921
1300.0,0.310944
1302.0,0.311373
1304.0,0.31137
1306.0,0.311161
1308.0,0.311244
1310.0,0.311383
1312.0,0.311624
1314.0,0.311839
1316.0,0.311962
1318.0,0.31196
1320.0,0.311755
1322.0,0.311822
1324.0,0.312117
1326.0,0.31205
1328.0,0.312173
1330.0,0.312452
1332.0,0.312193
1334.0,0.31196
1336.0,0.312325
1338.0,0.31243
1340.0,0.312914
1342.0,0.312893
1344.0,0.312987
1346.0,0.312662
1348.0,0.310404
1350.0,0.308187
1352.0,0.30782
1354.0,0.309693
1356.0,0.318505
1358.0,0.348387
1360.0,0.421754
1362.0,0.489505
1364.0,0.523258
1366.0,0.339973
1368.0,0.27195
1370.0,0.316727
1372.0,0.399966
1374.0,0.377103
1376.0,0.310495
1378.0,0.282369
1380.0,0.270752
1382.0,0.225292
1384.0,0.231522
1386.0,0.243372
1388.0,0.257667
1390.0,0.282126
1392.0,0.281678
1394.0,0.273557
1396.0,0.299862
1398.0,0.310706
1400.0,0.286689
1402.0,0.27404
1404.0,0.285168
1406.0,0.304626
1408.0,0.301706
1410.0,0.301008
1412.0,0.305504
1414.0,0.30731
1416.0,0.309401
1418.0,0.308713
1420.0,0.308803
1422.0,0.31048
1424.0,0.31049
1426.0,0.31087
1428.0,0.311798
1430.0,0.3135
1432.0,0.31448
1434.0,0.314343
1436.0,0.313696
1438.0,0.313308
1440.0,0.312705
1442.0,0.312232
1444.0,0.313996
1446.0,0.315924
1448.0,0.315524
1450.0,0.315566
1452.0,0.316014
1454.0,0.316408
1456.0,0.317493
1458.0,0.318168
1460.0,0.317625
1462.0,0.316793
1464.0,0.316958
1466.0,0.317116
1468.0,0.317493
1470.0,0.3184
1472.0,0.318654
1474.0,0.318453
1476.0,0.318931
1478.0,0.31969
1480.0,0.319824
1482.0,0.320628
1484.0,0.321062
1486.0,0.321021
1488.0,0.321386
1490.0,0.321686
1492.0,0.321951
1494.0,0.321958
1496.0,0.322093
1498.0,0.322811
1500.0,0.323111
1502.0,0.322779
1504.0,0.322648
1506.0,0.323517
1508.0,0.323663
1510.0,0.32321
1512.0,0.323095
1514.0,0.323326
1516.0,0.323713
1518.0,0.323907
1520.0,0.324053
1522.0,0.323843
1524.0,0.324017
1526.0,0.324684
1528.0,0.324698
1530.0,0.324498
1532.0,0.324488
1534.0,0.325062
1536.0,0.324984
1538.0,0.324614
1540.0,0.324787
1542.0,0.324901
1544.0,0.324783
1546.0,0.324849
1548.0,0.324837
1550.0,0.324885
1552.0,0.324947
1554.0,0.324661
1556.0,0.324111
1558.0,0.324325
1560.0,0.324671
1562.0,0.324928
1564.0,0.32487
1566.0,0.324258
1568.0,0.323713
1570.0,0.3238
1572.0,0.324048
1574.0,0.324203
1576.0,0.324246
1578.0,0.324373
1580.0,0.325032
1582.0,0.325232
1584.0,0.324764
1586.0,0.32467
1588.0,0.325036
1590.0,0.325129
1592.0,0.324945
1594.0,0.324857
1596.0,0.324683
1598.0,0.324331
1600.0,0.323978
1602.0,0.32452
1604.0,0.324934
1606.0,0.324885
1608.0,0.32434
1610.0,0.323857
1612.0,0.324199
1614.0,0.324435
1616.0,0.323868
1618.0,0.323885
1620.0,0.324777
1622.0,0.324605
1624.0,0.323894
1626.0,0.323701
1628.0,0.323492
1630.0,0.323653
1632.0,0.323937
1634.0,0.323592
1636.0,0.323448
1638.0,0.323545
1640.0,0.3233
1642.0,0.323056
1644.0,0.323033
1646.0,0.322824
1648.0,0.322415
1650.0,0.322613
1652.0,0.322868
1654.0,0.32316
1656.0,0.322932
1658.0,0.323016
1660.0,0.323656
1662.0,0.32334
1664.0,0.322604
1666.0,0.322261
1668.0,0.321911
1670.0,0.321717
1672.0,0.322648
1674.0,0.323094
1676.0,0.323072
1678.0,0.323597
1680.0,0.323971
1682.0,0.323819
1684.0,0.324497
1686.0,0.325091
1688.0,0.324512
1690.0,0.324383
1692.0,0.325176
1694.0,0.325831
1696.0,0.325082
1698.0,0.324373
1700.0,0.324806
1702.0,0.325382
1704.0,0.32534
1706.0,0.325508
1708.0,0.32588
1710.0,0.326363
1712.0,0.326478
1714.0,0.325979
1716.0,0.325383
1718.0,0.325817
1720.0,0.326253
1722.0,0.326175
1724.0,0.325766
1726.0,0.325262
1728.0,0.325626
1730.0,0.325182
1732.0,0.325579
1734.0,0.326651
1736.0,0.325038
1738.0,0.324839
1740.0,0.325351
1742.0,0.325596
1744.0,0.326457
1746.0,0.325791
1748.0,0.324888
1750.0,0.324851
1752.0,0.325444
1754.0,0.32602
1756.0,0.325354
1758.0,0.325132
1760.0,0.325219
1762.0,0.32522
1764.0,0.324337
1766.0,0.323815
1768.0,0.324533
1770.0,0.325173
1772.0,0.325765
1774.0,0.325497
1776.0,0.325052
1778.0,0.32626
1780.0,0.32583
1782.0,0.324184
1784.0,0.323996
1786.0,0.325202
1788.0,0.325845
1790.0,0.325026
1792.0,0.32539
1794.0,0.323847
1796.0,0.322895
1798.0,0.325486
1800.0,0.322914
1802.0,0.324935
1804.0,0.330726
1806.0,0.322718
1808.0,0.311691
1810.0,0.328965
1812.0,0.351147
1814.0,0.348967
1816.0,0.350859
1818.0,0.361003
1820.0,0.360103
1822.0,0.315539
1824.0,0.346298
1826.0,0.43384
1828.0,0.416401
1830.0,0.312092
1832.0,0.259934
1834.0,0.475841
1836.0,1.0
1838.0,1.0
1840.0,0.548198
1842.0,0.0
1844.0,0.483856
1846.0,0.0
1848.0,0.0
1850.0,0.0
1852.0,0.475477
1854.0,0.12855
1856.0,0.121923
1858.0,0.96906
1860.0,1.0
1862.0,0.498344
1864.0,0.307532
1866.0,0.384166
1868.0,1.0
1870.0,1.0
1872.0,0.188141
1874.0,0.384217
1876.0,0.402112
1878.0,0.736711
1880.0,0.507808
1882.0,0.45875
1884.0,0.290258
1886.0,0.278315
1888.0,0.288909
1890.0,0.430452
1892.0,0.536373
1894.0,0.542712
1896.0,0.452863
1898.0,0.275092
1900.0,0.183519
1902.0,0.290179
1904.0,0.265117
1906.0,0.144585
1908.0,0.100692
1910.0,0.292944
1912.0,1.0
1914.0,1.0
1916.0,0.485685
1918.0,0.334301
1920.0,0.356067
1922.0,0.334358
1924.0,0.304646
1926.0,0.240851
1928.0,0.229769
1930.0,0.296603
1932.0,0.335974
1934.0,0.356932
1936.0,0.360141
1938.0,0.342908
1940.0,0.323846
1942.0,0.318746
1944.0,0.313108
1946.0,0.312639
1948.0,0.318599
1950.0,0.318447
1952.0,0.324054
1954.0,0.319865
1956.0,0.324595
1958.0,0.314478
1960.0,0.298383
1962.0,0.31078
1964.0,0.325278
1966.0,0.3257
1968.0,0.321295
1970.0,0.316789
1972.0,0.317708
1974.0,0.318886
1976.0,0.317163
1978.0,0.317151
1980.0,0.317758
1982.0,0.319292
1984.0,0.322329
1986.0,0.322501
1988.0,0.321859
1990.0,0.322691
1992.0,0.321688
1994.0,0.320618
1996.0,0.32188
1998.0,0.323925
2000.0,0.323236
2002.0,0.324003
2004.0,0.316289
2006.0,0.327864
2008.0,0.331883
2010.0,0.315055
2012.0,0.314405
2014.0,0.336924
2016.0,0.337865
2018.0,0.331563
2020.0,0.328844
2022.0,0.328988
2024.0,0.328203
2026.0,0.326172
2028.0,0.325542
2030.0,0.327132
2032.0,0.328124
2034.0,0.327706
2036.0,0.327924
2038.0,0.329
2040.0,0.330741
2042.0,0.331438
2044.0,0.331358
2046.0,0.330586
2048.0,0.332004
2050.0,0.332869
2052.0,0.331579
2054.0,0.328986
2056.0,0.331767
2058.0,0.334101
2060.0,0.332039
2062.0,0.32878
2064.0,0.327624
2066.0,0.329312
2068.0,0.332373
2070.0,0.331803
2072.0,0.330689
2074.0,0.332327
2076.0,0.334689
2078.0,0.335896
2080.0,0.335182
2082.0,0.334381
2084.0,0.335633
2086.0,0.335927
2088.0,0.334231
2090.0,0.334527
2092.0,0.334245
2094.0,0.333014
2096.0,0.331992
2098.0,0.333524
2100.0,0.334571
2102.0,0.335943
2104.0,0.336361
2106.0,0.337673
2108.0,0.337518
2110.0,0.336716
2112.0,0.336346
2114.0,0.336399
2116.0,0.335626
2118.0,0.336296
2120.0,0.33813
2122.0,0.338293
2124.0,0.339837
2126.0,0.339133
2128.0,0.337638
2130.0,0.337247
2132.0,0.337908
2134.0,0.337325
2136.0,0.336367
2138.0,0.33798
2140.0,0.338771
2142.0,0.339055
2144.0,0.338509
2146.0,0.336335
2148.0,0.33482
2150.0,0.334602
2152.0,0.335019
2154.0,0.334947
2156.0,0.334611
2158.0,0.334213
2160.0,0.333097
2162.0,0.331685
2164.0,0.331708
2166.0,0.332966
2168.0,0.334185
2170.0,0.335195
2172.0,0.334134
2174.0,0.331016
2176.0,0.328765
2178.0,0.329651
2180.0,0.332295
2182.0,0.331109
2184.0,0.328414
2186.0,0.327623
2188.0,0.328243
2190.0,0.328838
2192.0,0.327914
2194.0,0.325704
2196.0,0.324426
2198.0,0.326649
2200.0,0.327454
2202.0,0.32552
2204.0,0.324428
2206.0,0.321818
2208.0,0.319892
2210.0,0.32208
2212.0,0.323725
2214.0,0.32112
2216.0,0.318081
2218.0,0.314966
2220.0,0.317331
2222.0,0.321938
2224.0,0.324457
2226.0,0.326383
2228.0,0.32467
2230.0,0.321954
2232.0,0.320872
2234.0,0.321426
2236.0,0.322645
2238.0,0.322986
2240.0,0.321761
2242.0,0.321129
2244.0,0.324132
2246.0,0.322777
2248.0,0.322298
2250.0,0.322937
2252.0,0.320614
2254.0,0.317494
2256.0,0.317876
2258.0,0.319706
2260.0,0.321648
2262.0,0.323298
2264.0,0.322289
2266.0,0.320866
2268.0,0.317461
2270.0,0.320715
2272.0,0.326997
2274.0,0.326569
2276.0,0.321369
2278.0,0.318198
2280.0,0.316263
2282.0,0.317656
2284.0,0.319225
2286.0,0.3225
2288.0,0.324306
2290.0,0.318065
2292.0,0.317666
2294.0,0.320793
2296.0,0.319815
2298.0,0.318044
2300.0,0.31695
2302.0,0.319599
2304.0,0.320686
2306.0,0.321702
2308.0,0.321333
2310.0,0.322319
2312.0,0.326584
2314.0,0.323168
2316.0,0.31777
2318.0,0.316134
2320.0,0.314012
2322.0,0.316177
2324.0,0.31901
2326.0,0.315158
2328.0,0.313382
2330.0,0.319829
2332.0,0.32461
2334.0,0.324725
2336.0,0.321684
2338.0,0.322938
2340.0,0.323867
2342.0,0.322404
2344.0,0.318756
2346.0,0.313962
2348.0,0.319617
2350.0,0.319756
2352.0,0.311809
2354.0,0.3165
2356.0,0.321964
2358.0,0.323105
2360.0,0.32072
2362.0,0.3199
2364.0,0.325608
2366.0,0.325039
2368.0,0.321938
2370.0,0.323443
2372.0,0.326631
2374.0,0.329578
2376.0,0.326618
2378.0,0.32765
2380.0,0.330915
2382.0,0.327547
2384.0,0.326056
2386.0,0.325978
2388.0,0.31384
2390.0,0.307314
2392.0,0.320361
2394.0,0.32788
2396.0,0.3281
2398.0,0.324964
2400.0,0.323126
2402.0,0.321822
2404.0,0.31251
2406.0,0.315298
2408.0,0.320326
2410.0,0.313256
2412.0,0.331369
2414.0,0.354752
2416.0,0.333154
2418.0,0.315383
2420.0,0.325062
2422.0,0.329744
2424.0,0.332795
2426.0,0.322715
2428.0,0.309774
2430.0,0.305959
2432.0,0.300875
2434.0,0.303948
2436.0,0.297348
2438.0,0.291623
2440.0,0.296759
2442.0,0.301196
2444.0,0.299139
2446.0,0.305133
2448.0,0.327057
2450.0,0.324439
2452.0,0.283402
2454.0,0.261567
2456.0,0.291326
2458.0,0.329035
2460.0,0.311971
2462.0,0.305942
2464.0,0.319549
2466.0,0.325131
2468.0,0.339342
2470.0,0.306407
2472.0,0.295897
2474.0,0.355122
2476.0,0.333849
2478.0,0.312044
2480.0,0.334456
2482.0,0.360236
2484.0,0.418648
2486.0,0.362549
2488.0,0.260861
2490.0,0.215095
2492.0,0.214395
2494.0,0.211932
2496.0,0.200905
2498.0,0.225429
2500.0,0.296268