File: data/spectra_ascii/AsphaltNassPfuetzen___corthum00441.txt
Wavelength (nm),Reflectance
350.0,0.0242581
352.0,0.023977
354.0,0.0242994
356.0,0.0237058
358.0,0.0241157
360.0,0.0238064
362.0,0.0233522
364.0,0.0233678
366.0,0.0233593
368.0,0.0233013
370.0,0.0231168
372.0,0.0228604
374.0,0.023275
376.0,0.0228951
378.0,0.0231823
380.0,0.0231737
382.0,0.0232862
384.0,0.0228279
386.0,0.0233106
388.0,0.0231685
390.0,0.0229062
392.0,0.0229416
394.0,0.0230696
396.0,0.0232179
398.0,0.0232514
400.0,0.0231004
402.0,0.0229889
404.0,0.0230185
406.0,0.023273
408.0,0.0231314
410.0,0.0233603
412.0,0.0233742
414.0,0.0233643
416.0,0.0233683
418.0,0.0235043
420.0,0.0235454
422.0,0.0236221
424.0,0.0236645
426.0,0.023791
428.0,0.0238604
430.0,0.0240225
432.0,0.0241137
434.0,0.0242132
436.0,0.0243121
438.0,0.0244327
440.0,0.0245753
442.0,0.0246367
444.0,0.024815
446.0,0.0248782
448.0,0.0249777
450.0,0.0249872
452.0,0.0251701
454.0,0.0252109
456.0,0.0253456
458.0,0.0253846
460.0,0.0255484
462.0,0.025675
464.0,0.0257762
466.0,0.025822
468.0,0.0259401
470.0,0.0261081
472.0,0.0261891
474.0,0.026348
476.0,0.0264262
478.0,0.0264828
480.0,0.0265911
482.0,0.0267126
484.0,0.0268079
486.0,0.0269749
488.0,0.0271526
490.0,0.0272384
492.0,0.0274002
494.0,0.0275303
496.0,0.0276811
498.0,0.0278296
500.0,0.027959
502.0,0.0281759
504.0,0.0283436
506.0,0.0284941
508.0,0.0285959
510.0,0.0287569
512.0,0.0289271
514.0,0.0291003
516.0,0.0292513
518.0,0.0294723
520.0,0.0296042
522.0,0.0297686
524.0,0.0299513
526.0,0.0300694
528.0,0.0303324
530.0,0.0305387
532.0,0.0307914
534.0,0.0310003
536.0,0.0312316
538.0,0.0313975
540.0,0.0317195
542.0,0.0319632
544.0,0.0322453
546.0,0.0324377
548.0,0.0327091
550.0,0.0330261
552.0,0.0332866
554.0,0.0335994
556.0,0.033902
558.0,0.0342112
560.0,0.034542
562.0,0.0347807
564.0,0.0350793
566.0,0.0353924
568.0,0.0356326
570.0,0.0359585
572.0,0.0362326
574.0,0.0365519
576.0,0.0368466
578.0,0.0370481
580.0,0.0373094
582.0,0.0374884
584.0,0.0377869
586.0,0.038055
588.0,0.0383554
590.0,0.03865
592.0,0.0388401
594.0,0.0389906
596.0,0.0392077
598.0,0.0394236
600.0,0.0396004
602.0,0.0397947
604.0,0.0400392
606.0,0.0401682
608.0,0.0403688
610.0,0.0405502
612.0,0.0407633
614.0,0.0409372
616.0,0.0411245
618.0,0.04133
620.0,0.0415398
622.0,0.0416933
624.0,0.0419315
626.0,0.0420483
628.0,0.0423637
630.0,0.0425754
632.0,0.0427752
634.0,0.042891
636.0,0.0430117
638.0,0.043223
640.0,0.0433798
642.0,0.0435735
644.0,0.0438131
646.0,0.0439385
648.0,0.0442013
650.0,0.0443686
652.0,0.0445242
654.0,0.0446663
656.0,0.0448931
658.0,0.0450407
660.0,0.0452154
662.0,0.0454286
664.0,0.0454834
666.0,0.0457241
668.0,0.0458899
670.0,0.0460793
672.0,0.0462778
674.0,0.0464182
676.0,0.0466125
678.0,0.0467906
680.0,0.0468845
682.0,0.0470609
684.0,0.047323
686.0,0.0476522
688.0,0.0479826
690.0,0.0481402
692.0,0.0481923
694.0,0.0483814
696.0,0.048471
698.0,0.0485779
700.0,0.0487748
702.0,0.0489284
704.0,0.0491014
706.0,0.0492364
708.0,0.0493597
710.0,0.0495312
712.0,0.0497838
714.0,0.049955
716.0,0.0502955
718.0,0.0508542
720.0,0.0509692
722.0,0.0509514
724.0,0.0511999
726.0,0.0513712
728.0,0.0515428
730.0,0.0516594
732.0,0.0517541
734.0,0.0517669
736.0,0.0519177
738.0,0.052084
740.0,0.052208
742.0,0.052362
744.0,0.0525743
746.0,0.0527429
748.0,0.0529628
750.0,0.0530996
752.0,0.0533018
754.0,0.0534582
756.0,0.0535615
758.0,0.0538149
760.0,0.0548598
762.0,0.0557738
764.0,0.0556969
766.0,0.0550829
768.0,0.0547841
770.0,0.0548252
772.0,0.0549051
774.0,0.0550828
776.0,0.055285
778.0,0.0553603
780.0,0.0555344
782.0,0.0557017
784.0,0.0558362
786.0,0.0560445
788.0,0.0562025
790.0,0.0562925
792.0,0.0564267
794.0,0.0565624
796.0,0.0567258
798.0,0.0568231
800.0,0.0569523
802.0,0.0571888
804.0,0.0573292
806.0,0.0573264
808.0,0.0574308
810.0,0.0576925
812.0,0.057858
814.0,0.0582093
816.0,0.0583839
818.0,0.058389
820.0,0.058406
822.0,0.0585631
824.0,0.0586187
826.0,0.0585522
828.0,0.0586662
830.0,0.0586798
832.0,0.0587148
834.0,0.0586854
836.0,0.0588046
838.0,0.0588582
840.0,0.0589072
842.0,0.0589602
844.0,0.0589736
846.0,0.0589335
848.0,0.0591987
850.0,0.0592843
852.0,0.059281
854.0,0.0594601
856.0,0.0593835
858.0,0.0595862
860.0,0.0597092
862.0,0.0595369
864.0,0.0597087
866.0,0.0597321
868.0,0.0598331
870.0,0.0597542
872.0,0.0599433
874.0,0.05996
876.0,0.0599922
878.0,0.0601222
880.0,0.0601031
882.0,0.0602033
884.0,0.0601962
886.0,0.0603085
888.0,0.0602745
890.0,0.0604575
892.0,0.060601
894.0,0.0606826
896.0,0.0610166
898.0,0.0610464
900.0,0.0610894
902.0,0.0609403
904.0,0.0607392
906.0,0.0613517
908.0,0.0609629
910.0,0.060972
912.0,0.0614055
914.0,0.0615054
916.0,0.0614778
918.0,0.0614668
920.0,0.0611236
922.0,0.0613593
924.0,0.060948
926.0,0.061256
928.0,0.0613388
930.0,0.0615515
932.0,0.0618156
934.0,0.0616331
936.0,0.0612138
938.0,0.0606852
940.0,0.0614913
942.0,0.0614861
944.0,0.0601152
946.0,0.0608245
948.0,0.0602142
950.0,0.0597766
952.0,0.0597885
954.0,0.0590028
956.0,0.0583067
958.0,0.0586271
960.0,0.0582168
962.0,0.0584274
964.0,0.0586974
966.0,0.0581849
968.0,0.0579465
970.0,0.0584998
972.0,0.0584679
974.0,0.0581293
976.0,0.05737
978.0,0.0585136
980.0,0.0575507
982.0,0.0575201
984.0,0.0580962
986.0,0.0580774
988.0,0.0575689
990.0,0.0578307
992.0,0.0579342
994.0,0.0577781
996.0,0.0580185
998.0,0.0588944
1000.0,0.0588294
1002.0,0.0608978
1004.0,0.0609861
1006.0,0.0612342
1008.0,0.0614727
1010.0,0.0616095
1012.0,0.0617708
1014.0,0.0618141
1016.0,0.0619095
1018.0,0.0624962
1020.0,0.0627645
1022.0,0.0626248
1024.0,0.0625739
1026.0,0.0625898
1028.0,0.0631085
1030.0,0.063229
1032.0,0.0633025
1034.0,0.0639418
1036.0,0.0639136
1038.0,0.0641075
1040.0,0.0638651
1042.0,0.0641916
1044.0,0.0644128
1046.0,0.0645353
1048.0,0.064159
1050.0,0.0642139
1052.0,0.0646613
1054.0,0.0648268
1056.0,0.0649124
1058.0,0.0651025
1060.0,0.0651145
1062.0,0.0650687
1064.0,0.0651021
1066.0,0.065144
1068.0,0.0654276
1070.0,0.0655698
1072.0,0.0654349
1074.0,0.0655082
1076.0,0.0657544
1078.0,0.0659175
1080.0,0.0656897
1082.0,0.0654735
1084.0,0.0654996
1086.0,0.0654374
1088.0,0.0656822
1090.0,0.0658221
1092.0,0.0655215
1094.0,0.0654235
1096.0,0.0654427
1098.0,0.0655343
1100.0,0.0657895
1102.0,0.065981
1104.0,0.0659438
1106.0,0.0659957
1108.0,0.0657825
1110.0,0.0655825
1112.0,0.065676
1114.0,0.0658951
1116.0,0.0661065
1118.0,0.06667
1120.0,0.0665731
1122.0,0.0660212
1124.0,0.0663841
1126.0,0.0665147
1128.0,0.0659709
1130.0,0.0649906
1132.0,0.0641722
1134.0,0.064145
1136.0,0.064254
1138.0,0.063606
1140.0,0.0626234
1142.0,0.0621345
1144.0,0.0613049
1146.0,0.0603253
1148.0,0.0598406
1150.0,0.0594006
1152.0,0.0584898
1154.0,0.0576854
1156.0,0.0572915
1158.0,0.0569046
1160.0,0.0565886
1162.0,0.0563362
1164.0,0.056011
1166.0,0.0558177
1168.0,0.0556535
1170.0,0.0554861
1172.0,0.0554067
1174.0,0.0555707
1176.0,0.0556719
1178.0,0.0555857
1180.0,0.0555486
1182.0,0.0555029
1184.0,0.0553847
1186.0,0.0553923
1188.0,0.0553289
1190.0,0.055342
1192.0,0.0551842
1194.0,0.0550599
1196.0,0.0550526
1198.0,0.0551524
1200.0,0.055332
1202.0,0.055464
1204.0,0.0553219
1206.0,0.0552428
1208.0,0.0553734
1210.0,0.0554441
1212.0,0.0553744
1214.0,0.0553334
1216.0,0.0553653
1218.0,0.055422
1220.0,0.0554919
1222.0,0.0555454
1224.0,0.0556917
1226.0,0.0558319
1228.0,0.0560199
1230.0,0.0560657
1232.0,0.0561463
1234.0,0.0561132
1236.0,0.0562114
1238.0,0.0563882
1240.0,0.056463
1242.0,0.0565134
1244.0,0.0566807
1246.0,0.0567632
1248.0,0.0569465
1250.0,0.0569919
1252.0,0.0570531
1254.0,0.0571771
1256.0,0.0573475
1258.0,0.0574758
1260.0,0.0574854
1262.0,0.0577008
1264.0,0.0580507
1266.0,0.0580886
1268.0,0.0579251
1270.0,0.0577046
1272.0,0.0578652
1274.0,0.057908
1276.0,0.0577763
1278.0,0.0576358
1280.0,0.0577439
1282.0,0.0576802
1284.0,0.0575214
1286.0,0.0572294
1288.0,0.0571576
1290.0,0.0571712
1292.0,0.0569929
1294.0,0.0568848
1296.0,0.0569199
1298.0,0.0568707
1300.0,0.0564857
1302.0,0.0560845
1304.0,0.0559241
1306.0,0.0557348
1308.0,0.0553518
1310.0,0.0550191
1312.0,0.0546248
1314.0,0.0541707
1316.0,0.0537541
1318.0,0.0532256
1320.0,0.0526381
1322.0,0.052021
1324.0,0.0516662
1326.0,0.0514131
1328.0,0.0508129
1330.0,0.0500015
1332.0,0.0496044
1334.0,0.0495988
1336.0,0.0490181
1338.0,0.0483244
1340.0,0.048035
1342.0,0.0480419
1344.0,0.0482266
1346.0,0.0483312
1348.0,0.0485568
1350.0,0.0492076
1352.0,0.0490313
1354.0,0.0494278
1356.0,0.0501168
1358.0,0.0496696
1360.0,0.0394975
1362.0,0.00382814
1364.0,0.0201889
1366.0,0.259322
1368.0,0.693967
1370.0,0.376409
1372.0,0.0876026
1374.0,0.0495423
1376.0,0.0554154
1378.0,0.0625978
1380.0,0.0517926
1382.0,0.036915
1384.0,0.0555945
1386.0,0.055775
1388.0,0.0482994
1390.0,0.0579764
1392.0,0.0616154
1394.0,0.0472173
1396.0,0.0219112
1398.0,0.0222624
1400.0,0.030874
1402.0,0.0342365
1404.0,0.0318186
1406.0,0.0275364
1408.0,0.0285226
1410.0,0.0237534
1412.0,0.02176
1414.0,0.021132
1416.0,0.0183399
1418.0,0.0192637
1420.0,0.0216379
1422.0,0.0219928
1424.0,0.0199206
1426.0,0.0172993
1428.0,0.0165786
1430.0,0.0166382
1432.0,0.0161888
1434.0,0.0148538
1436.0,0.0143868
1438.0,0.0139473
1440.0,0.0142287
1442.0,0.0140276
1444.0,0.013478
1446.0,0.0126918
1448.0,0.0120912
1450.0,0.0119046
1452.0,0.0120968
1454.0,0.0120595
1456.0,0.0113996
1458.0,0.0114006
1460.0,0.0117048
1462.0,0.011395
1464.0,0.0112257
1466.0,0.011542
1468.0,0.011967
1470.0,0.011823
1472.0,0.0118159
1474.0,0.0120135
1476.0,0.0117035
1478.0,0.0113238
1480.0,0.0112313
1482.0,0.0112865
1484.0,0.0115781
1486.0,0.0120235
1488.0,0.0119911
1490.0,0.0120967
1492.0,0.0121723
1494.0,0.0121472
1496.0,0.0119565
1498.0,0.0120369
1500.0,0.0124184
1502.0,0.0127857
1504.0,0.0128244
1506.0,0.0128507
1508.0,0.0131591
1510.0,0.0136247
1512.0,0.0141247
1514.0,0.0141085
1516.0,0.0140805
1518.0,0.0144067
1520.0,0.014855
1522.0,0.0152266
1524.0,0.0154356
1526.0,0.0155978
1528.0,0.0158681
1530.0,0.0163116
1532.0,0.016492
1534.0,0.0168236
1536.0,0.0174071
1538.0,0.0177042
1540.0,0.0179928
1542.0,0.0182354
1544.0,0.018622
1546.0,0.0188855
1548.0,0.0191017
1550.0,0.0193295
1552.0,0.0198287
1554.0,0.0203916
1556.0,0.0204695
1558.0,0.0205743
1560.0,0.0210924
1562.0,0.0215253
1564.0,0.0219783
1566.0,0.0226149
1568.0,0.0228186
1570.0,0.022861
1572.0,0.0232521
1574.0,0.0238564
1576.0,0.0245575
1578.0,0.0247604
1580.0,0.0247352
1582.0,0.0247922
1584.0,0.0251926
1586.0,0.0254732
1588.0,0.0255719
1590.0,0.0259738
1592.0,0.0263501
1594.0,0.026417
1596.0,0.0265263
1598.0,0.0266935
1600.0,0.0271757
1602.0,0.0275272
1604.0,0.0276441
1606.0,0.0278485
1608.0,0.0278486
1610.0,0.0278046
1612.0,0.0282609
1614.0,0.0285757
1616.0,0.0287123
1618.0,0.0289712
1620.0,0.029375
1622.0,0.0296221
1624.0,0.0297641
1626.0,0.0300296
1628.0,0.0302388
1630.0,0.0303015
1632.0,0.0302099
1634.0,0.0303374
1636.0,0.0306298
1638.0,0.0307955
1640.0,0.0310358
1642.0,0.0314026
1644.0,0.0316268
1646.0,0.0315759
1648.0,0.0316646
1650.0,0.0316043
1652.0,0.0313331
1654.0,0.0315087
1656.0,0.0316221
1658.0,0.0316431
1660.0,0.0318468
1662.0,0.032123
1664.0,0.0323373
1666.0,0.0321911
1668.0,0.0323045
1670.0,0.0322227
1672.0,0.0319304
1674.0,0.032096
1676.0,0.0324755
1678.0,0.0328813
1680.0,0.0327982
1682.0,0.0328149
1684.0,0.0330896
1686.0,0.032824
1688.0,0.0326269
1690.0,0.0328753
1692.0,0.0327456
1694.0,0.0326079
1696.0,0.0326207
1698.0,0.0329434
1700.0,0.0330642
1702.0,0.0329471
1704.0,0.0329914
1706.0,0.032559
1708.0,0.0324963
1710.0,0.0325853
1712.0,0.032564
1714.0,0.0327779
1716.0,0.0326237
1718.0,0.0325765
1720.0,0.0322562
1722.0,0.0320175
1724.0,0.0321147
1726.0,0.0318932
1728.0,0.031433
1730.0,0.0308865
1732.0,0.0303853
1734.0,0.0306167
1736.0,0.0309939
1738.0,0.0309561
1740.0,0.0308558
1742.0,0.0306313
1744.0,0.030228
1746.0,0.0300174
1748.0,0.0292574
1750.0,0.0286378
1752.0,0.0290726
1754.0,0.0294416
1756.0,0.0283339
1758.0,0.0269932
1760.0,0.027042
1762.0,0.0271692
1764.0,0.0270445
1766.0,0.0274618
1768.0,0.0279122
1770.0,0.0273149
1772.0,0.0267739
1774.0,0.0270144
1776.0,0.027346
1778.0,0.0268116
1780.0,0.0263599
1782.0,0.0266439
1784.0,0.0265064
1786.0,0.0262627
1788.0,0.0266234
1790.0,0.0253544
1792.0,0.0255066
1794.0,0.0270675
1796.0,0.0271561
1798.0,0.0265547
1800.0,0.0274443
1802.0,0.0354289
1804.0,0.0425015
1806.0,0.0479908
1808.0,0.0496272
1810.0,0.0489551
1812.0,0.0498584
1814.0,0.0646883
1816.0,0.0757439
1818.0,0.0781574
1820.0,0.0701358
1822.0,0.0775798
1824.0,0.0661488
1826.0,0.0630343
1828.0,0.117857
1830.0,0.120001
1832.0,0.153506
1834.0,0.340246
1836.0,0.0
1838.0,0.0
1840.0,0.0
1842.0,0.0
1844.0,0.0
1846.0,0.0
1848.0,0.0
1850.0,0.0
1852.0,0.301391
1854.0,0.0
1856.0,0.0
1858.0,0.0
1860.0,0.275648
1862.0,0.701087
1864.0,0.465934
1866.0,0.331153
1868.0,0.201392
1870.0,0.198056
1872.0,0.239417
1874.0,0.360598
1876.0,0.310571
1878.0,0.352607
1880.0,0.182143
1882.0,0.281702
1884.0,0.237165
1886.0,0.106847
1888.0,0.131112
1890.0,0.225622
1892.0,0.173491
1894.0,0.085286
1896.0,0.152949
1898.0,0.459825
1900.0,1.0
1902.0,0.0
1904.0,1.0
1906.0,1.0
1908.0,0.212215
1910.0,0.0
1912.0,0.0970449
1914.0,0.163333
1916.0,0.188487
1918.0,0.126096
1920.0,0.100683
1922.0,0.0690273
1924.0,0.0865972
1926.0,0.0878363
1928.0,0.0895948
1930.0,0.0227124
1932.0,0.00173279
1934.0,0.0388361
1936.0,0.0546485
1938.0,0.041483
1940.0,0.0263136
1942.0,0.011135
1944.0,0.000424056
1946.0,0.00735674
1948.0,0.0165397
1950.0,0.0256844
1952.0,0.0249616
1954.0,0.0237832
1956.0,0.0205068
1958.0,0.0254631
1960.0,0.0260184
1962.0,0.0234849
1964.0,0.02119
1966.0,0.0174106
1968.0,0.00999128
1970.0,0.00679331
1972.0,0.00883797
1974.0,0.00813439
1976.0,0.00665871
1978.0,0.00581148
1980.0,0.00731159
1982.0,0.00732045
1984.0,0.00790591
1986.0,0.00707821
1988.0,0.00512959
1990.0,0.00581721
1992.0,0.00681222
1994.0,0.00750693
1996.0,0.00503614
1998.0,0.00462102
2000.0,0.00816684
2002.0,0.00873504
2004.0,0.00838411
2006.0,0.00862932
2008.0,0.0143632
2010.0,0.0130653
2012.0,0.0072798
2014.0,0.0115006
2016.0,0.0182655
2018.0,0.0146237
2020.0,0.0111183
2022.0,0.0102089
2024.0,0.0102331
2026.0,0.00999215
2028.0,0.00744588
2030.0,0.00600766
2032.0,0.00595066
2034.0,0.00574601
2036.0,0.00549992
2038.0,0.00683366
2040.0,0.00756025
2042.0,0.00758076
2044.0,0.00857135
2046.0,0.00817916
2048.0,0.00725826
2050.0,0.00692292
2052.0,0.00689928
2054.0,0.00846248
2056.0,0.00957491
2058.0,0.00960957
2060.0,0.0102459
2062.0,0.0101652
2064.0,0.0109755
2066.0,0.0120571
2068.0,0.0119858
2070.0,0.0107656
2072.0,0.0110166
2074.0,0.0101507
2076.0,0.00866884
2078.0,0.00921157
2080.0,0.0112002
2082.0,0.0110409
2084.0,0.0106437
2086.0,0.00955682
2088.0,0.00922441
2090.0,0.00852052
2092.0,0.00747704
2094.0,0.00741185
2096.0,0.00879595
2098.0,0.00981468
2100.0,0.00939479
2102.0,0.00996469
2104.0,0.0104972
2106.0,0.010135
2108.0,0.00981289
2110.0,0.00991839
2112.0,0.00992394
2114.0,0.0113504
2116.0,0.0136562
2118.0,0.014547
2120.0,0.0134207
2122.0,0.0119761
2124.0,0.0117055
2126.0,0.0129872
2128.0,0.0131689
2130.0,0.0119225
2132.0,0.0112572
2134.0,0.0118497
2136.0,0.0126017
2138.0,0.0132245
2140.0,0.0132821
2142.0,0.0129519
2144.0,0.0125751
2146.0,0.0124273
2148.0,0.0132389
2150.0,0.01396
2152.0,0.0142391
2154.0,0.0151397
2156.0,0.0156076
2158.0,0.0154715
2160.0,0.0156228
2162.0,0.0149102
2164.0,0.0148315
2166.0,0.0146917
2168.0,0.0138903
2170.0,0.0141055
2172.0,0.0144114
2174.0,0.0140989
2176.0,0.0132937
2178.0,0.0117985
2180.0,0.0118739
2182.0,0.0144145
2184.0,0.0164012
2186.0,0.0163352
2188.0,0.0164578
2190.0,0.0158735
2192.0,0.0155747
2194.0,0.0147692
2196.0,0.0151562
2198.0,0.0155039
2200.0,0.0145642
2202.0,0.0146845
2204.0,0.0150009
2206.0,0.0141353
2208.0,0.0146105
2210.0,0.0140733
2212.0,0.0149065
2214.0,0.0169511
2216.0,0.0160015
2218.0,0.0147326
2220.0,0.0148823
2222.0,0.0141638
2224.0,0.0136302
2226.0,0.0147796
2228.0,0.0145426
2230.0,0.0136606
2232.0,0.0143785
2234.0,0.0151437
2236.0,0.0153803
2238.0,0.0150507
2240.0,0.0148844
2242.0,0.0161652
2244.0,0.0165875
2246.0,0.0167181
2248.0,0.016632
2250.0,0.0143867
2252.0,0.0124361
2254.0,0.0133368
2256.0,0.0150491
2258.0,0.0154864
2260.0,0.0157031
2262.0,0.0149848
2264.0,0.0142444
2266.0,0.0149273
2268.0,0.014158
2270.0,0.0130106
2272.0,0.0144759
2274.0,0.0166995
2276.0,0.016381
2278.0,0.0158082
2280.0,0.0146971
2282.0,0.0134159
2284.0,0.0100755
2286.0,0.0111406
2288.0,0.0150731
2290.0,0.0160178
2292.0,0.0135694
2294.0,0.0108076
2296.0,0.0113201
2298.0,0.0140183
2300.0,0.0160544
2302.0,0.0119754
2304.0,0.0100688
2306.0,0.0123404
2308.0,0.0150472
2310.0,0.0146614
2312.0,0.0130964
2314.0,0.0168311
2316.0,0.0192033
2318.0,0.0161645
2320.0,0.0138288
2322.0,0.0131553
2324.0,0.0105767
2326.0,0.0127241
2328.0,0.0124902
2330.0,0.0104912
2332.0,0.00735421
2334.0,0.00586124
2336.0,0.00811783
2338.0,0.0124418
2340.0,0.0136475
2342.0,0.0132836
2344.0,0.0129692
2346.0,0.0120387
2348.0,0.0111849
2350.0,0.0118461
2352.0,0.013268
2354.0,0.0120494
2356.0,0.0101562
2358.0,0.00602808
2360.0,0.00703282
2362.0,0.00789591
2364.0,0.00331894
2366.0,0.00358218
2368.0,0.00141617
2370.0,0.0
2372.0,0.00493603
2374.0,0.00998879
2376.0,0.0119506
2378.0,0.0100146
2380.0,0.0111444
2382.0,0.0191093
2384.0,0.0263234
2386.0,0.0270548
2388.0,0.0185706
2390.0,0.00942486
2392.0,0.0112106
2394.0,0.0191817
2396.0,0.0147218
2398.0,0.00971099
2400.0,0.00863924
2402.0,0.0149256
2404.0,0.0147202
2406.0,0.0131312
2408.0,0.0205667
2410.0,0.0178814
2412.0,0.0196903
2414.0,0.0120231
2416.0,0.00300369
2418.0,0.00575382
2420.0,0.00834035
2422.0,0.00616278
2424.0,0.00628071
2426.0,0.00066674
2428.0,0.00694961
2430.0,0.00820547
2432.0,0.0
2434.0,0.00660364
2436.0,0.0172811
2438.0,0.0196576
2440.0,0.0126357
2442.0,0.0
2444.0,0.0
2446.0,0.0
2448.0,0.00092611
2450.0,0.0263102
2452.0,0.0230001
2454.0,0.0257769
2456.0,0.0258677
2458.0,0.018853
2460.0,0.022575
2462.0,0.0
2464.0,0.0
2466.0,0.0
2468.0,0.0
2470.0,0.0
2472.0,0.0
2474.0,0.046596
2476.0,0.0363212
2478.0,0.0
2480.0,0.0
2482.0,0.0
2484.0,0.0
2486.0,0.00743652
2488.0,0.0
2490.0,0.0
2492.0,0.0
2494.0,0.0591632
2496.0,0.0416731
2498.0,0.0954114
2500.0,0.129183