File: data/spectra_ascii/AsphaltNassPfuetzen___corthum00440.txt
Wavelength (nm),Reflectance
350.0,0.0244329
352.0,0.0234375
354.0,0.024203
356.0,0.0236328
358.0,0.0235995
360.0,0.0234432
362.0,0.023332
364.0,0.0233728
366.0,0.0230912
368.0,0.0233159
370.0,0.0230723
372.0,0.0223551
374.0,0.022939
376.0,0.022805
378.0,0.0228638
380.0,0.0229756
382.0,0.0229076
384.0,0.0227707
386.0,0.0229619
388.0,0.0230091
390.0,0.0226321
392.0,0.0231447
394.0,0.0227667
396.0,0.0227315
398.0,0.0230477
400.0,0.0227384
402.0,0.0229484
404.0,0.02282
406.0,0.0230023
408.0,0.0228405
410.0,0.0231484
412.0,0.0231499
414.0,0.0232082
416.0,0.0232368
418.0,0.0232913
420.0,0.0233455
422.0,0.0234708
424.0,0.0234425
426.0,0.0236198
428.0,0.0236878
430.0,0.0238459
432.0,0.0240015
434.0,0.0239568
436.0,0.0241899
438.0,0.0242878
440.0,0.0244155
442.0,0.0245491
444.0,0.0246927
446.0,0.0247494
448.0,0.0248078
450.0,0.0249377
452.0,0.0250322
454.0,0.0251506
456.0,0.0253074
458.0,0.0253444
460.0,0.025496
462.0,0.0255831
464.0,0.0256623
466.0,0.025791
468.0,0.0258888
470.0,0.0260241
472.0,0.0261253
474.0,0.0262375
476.0,0.0263902
478.0,0.0264186
480.0,0.0266034
482.0,0.026651
484.0,0.026794
486.0,0.0269923
488.0,0.0271765
490.0,0.0272702
492.0,0.027389
494.0,0.0275286
496.0,0.0276924
498.0,0.0279078
500.0,0.0279992
502.0,0.0281895
504.0,0.0283276
506.0,0.0284808
508.0,0.028674
510.0,0.028822
512.0,0.0289687
514.0,0.0291508
516.0,0.029295
518.0,0.0295054
520.0,0.0296862
522.0,0.0298254
524.0,0.0300054
526.0,0.030203
528.0,0.0304025
530.0,0.0306135
532.0,0.0308063
534.0,0.0310407
536.0,0.0312923
538.0,0.0315048
540.0,0.0317733
542.0,0.0320305
544.0,0.0323267
546.0,0.032515
548.0,0.0327741
550.0,0.0330681
552.0,0.033338
554.0,0.0336694
556.0,0.0339931
558.0,0.0343148
560.0,0.0345915
562.0,0.0348742
564.0,0.0351909
566.0,0.0355087
568.0,0.0357463
570.0,0.0360706
572.0,0.0363527
574.0,0.0366567
576.0,0.0369486
578.0,0.0371924
580.0,0.0374381
582.0,0.0376237
584.0,0.037932
586.0,0.0381924
588.0,0.0384773
590.0,0.0387477
592.0,0.0389533
594.0,0.0391609
596.0,0.0393581
598.0,0.0395362
600.0,0.0396839
602.0,0.0399336
604.0,0.0401569
606.0,0.0403001
608.0,0.0404777
610.0,0.0406896
612.0,0.0409105
614.0,0.0411123
616.0,0.0412497
618.0,0.0414769
620.0,0.0416998
622.0,0.0418684
624.0,0.0421013
626.0,0.0422792
628.0,0.0425535
630.0,0.0427908
632.0,0.0429206
634.0,0.0430438
636.0,0.043218
638.0,0.043424
640.0,0.0435882
642.0,0.0437937
644.0,0.0440315
646.0,0.04415
648.0,0.0444065
650.0,0.0446248
652.0,0.0447227
654.0,0.0449058
656.0,0.0450994
658.0,0.045256
660.0,0.045442
662.0,0.0456646
664.0,0.0457397
666.0,0.0459624
668.0,0.0461107
670.0,0.0463301
672.0,0.0464894
674.0,0.0466603
676.0,0.0468828
678.0,0.0470793
680.0,0.0471789
682.0,0.047368
684.0,0.047565
686.0,0.0478902
688.0,0.0482601
690.0,0.0484287
692.0,0.0484954
694.0,0.0486809
696.0,0.0488164
698.0,0.0488847
700.0,0.0490928
702.0,0.049217
704.0,0.0494276
706.0,0.0495673
708.0,0.0497613
710.0,0.049855
712.0,0.0500785
714.0,0.0503037
716.0,0.0506464
718.0,0.051169
720.0,0.0512844
722.0,0.0512753
724.0,0.0515876
726.0,0.0517534
728.0,0.0518369
730.0,0.0519726
732.0,0.0521115
734.0,0.0521285
736.0,0.0523111
738.0,0.0524043
740.0,0.0525936
742.0,0.052729
744.0,0.0529055
746.0,0.053119
748.0,0.0533311
750.0,0.0534705
752.0,0.053627
754.0,0.0538232
756.0,0.0539835
758.0,0.0542117
760.0,0.0551213
762.0,0.0559918
764.0,0.0558979
766.0,0.0554387
768.0,0.0551626
770.0,0.0551541
772.0,0.0553
774.0,0.0554621
776.0,0.0556554
778.0,0.0557887
780.0,0.0559454
782.0,0.0560864
784.0,0.0562233
786.0,0.056423
788.0,0.0565524
790.0,0.0567239
792.0,0.0568437
794.0,0.0569959
796.0,0.057156
798.0,0.0572536
800.0,0.0574202
802.0,0.0576563
804.0,0.057687
806.0,0.0577763
808.0,0.0578987
810.0,0.0581273
812.0,0.0583392
814.0,0.0586543
816.0,0.0588294
818.0,0.0587635
820.0,0.0588023
822.0,0.0589665
824.0,0.0590407
826.0,0.0589991
828.0,0.0591739
830.0,0.0591127
832.0,0.0591981
834.0,0.0592503
836.0,0.0592543
838.0,0.0593268
840.0,0.0593422
842.0,0.0594144
844.0,0.0593866
846.0,0.0594512
848.0,0.0596275
850.0,0.059717
852.0,0.0596843
854.0,0.0598193
856.0,0.0598728
858.0,0.0599513
860.0,0.0600674
862.0,0.0599313
864.0,0.0601855
866.0,0.0602501
868.0,0.0602235
870.0,0.0602382
872.0,0.0603269
874.0,0.0604615
876.0,0.0604603
878.0,0.0604868
880.0,0.0605017
882.0,0.0606281
884.0,0.0606786
886.0,0.060814
888.0,0.060749
890.0,0.0607944
892.0,0.061073
894.0,0.0611232
896.0,0.0612951
898.0,0.0611937
900.0,0.061533
902.0,0.0614023
904.0,0.0613304
906.0,0.0615235
908.0,0.0613956
910.0,0.0614196
912.0,0.0619432
914.0,0.0618911
916.0,0.0618505
918.0,0.0617762
920.0,0.0616812
922.0,0.0618029
924.0,0.0614435
926.0,0.0616482
928.0,0.0616503
930.0,0.0621939
932.0,0.0619918
934.0,0.0614266
936.0,0.0618776
938.0,0.0608099
940.0,0.0613434
942.0,0.0607765
944.0,0.0601121
946.0,0.06087
948.0,0.059673
950.0,0.0595559
952.0,0.0596919
954.0,0.0586543
956.0,0.0583454
958.0,0.0584876
960.0,0.0588928
962.0,0.0578778
964.0,0.0580992
966.0,0.0584211
968.0,0.0574307
970.0,0.0579297
972.0,0.057756
974.0,0.0575399
976.0,0.0576892
978.0,0.0577689
980.0,0.0574447
982.0,0.0579757
984.0,0.0570339
986.0,0.057838
988.0,0.0574628
990.0,0.0579829
992.0,0.0578692
994.0,0.0576234
996.0,0.0575271
998.0,0.0584542
1000.0,0.058518
1002.0,0.0612706
1004.0,0.0613171
1006.0,0.0609866
1008.0,0.0608518
1010.0,0.061133
1012.0,0.0617338
1014.0,0.0619134
1016.0,0.0618419
1018.0,0.0619103
1020.0,0.0624286
1022.0,0.0626984
1024.0,0.0624293
1026.0,0.0625363
1028.0,0.0627995
1030.0,0.0630957
1032.0,0.0632992
1034.0,0.0634764
1036.0,0.0636356
1038.0,0.0637332
1040.0,0.0638249
1042.0,0.0640079
1044.0,0.0640623
1046.0,0.0641949
1048.0,0.0644941
1050.0,0.0648466
1052.0,0.0645462
1054.0,0.0645914
1056.0,0.0647037
1058.0,0.0647771
1060.0,0.0649025
1062.0,0.0651777
1064.0,0.0655504
1066.0,0.0654477
1068.0,0.0654823
1070.0,0.0658856
1072.0,0.0659201
1074.0,0.0659403
1076.0,0.0660371
1078.0,0.0661338
1080.0,0.0659945
1082.0,0.0657535
1084.0,0.0659777
1086.0,0.066245
1088.0,0.0659362
1090.0,0.0658233
1092.0,0.0658034
1094.0,0.0657979
1096.0,0.0659514
1098.0,0.0661348
1100.0,0.0660091
1102.0,0.0658393
1104.0,0.0660056
1106.0,0.0657152
1108.0,0.0656093
1110.0,0.0659836
1112.0,0.0664152
1114.0,0.0666615
1116.0,0.0663834
1118.0,0.0664399
1120.0,0.0666725
1122.0,0.0662049
1124.0,0.0664408
1126.0,0.0666345
1128.0,0.0665757
1130.0,0.0655382
1132.0,0.0650624
1134.0,0.0648802
1136.0,0.0638245
1138.0,0.0628272
1140.0,0.0622169
1142.0,0.0617477
1144.0,0.0612127
1146.0,0.0607971
1148.0,0.0597952
1150.0,0.0583562
1152.0,0.0572273
1154.0,0.0566272
1156.0,0.056074
1158.0,0.0555568
1160.0,0.0551384
1162.0,0.0549887
1164.0,0.0546764
1166.0,0.0543343
1168.0,0.0541657
1170.0,0.0542179
1172.0,0.0543256
1174.0,0.0542327
1176.0,0.0541673
1178.0,0.0541703
1180.0,0.0540709
1182.0,0.053866
1184.0,0.0538488
1186.0,0.053995
1188.0,0.0539576
1190.0,0.0537504
1192.0,0.053671
1194.0,0.0536976
1196.0,0.0536731
1198.0,0.053692
1200.0,0.0536156
1202.0,0.0537199
1204.0,0.0536773
1206.0,0.0537816
1208.0,0.0539973
1210.0,0.0538981
1212.0,0.0539194
1214.0,0.053909
1216.0,0.0539427
1218.0,0.0540739
1220.0,0.0543013
1222.0,0.0544366
1224.0,0.0545301
1226.0,0.0545596
1228.0,0.0544881
1230.0,0.0546169
1232.0,0.054839
1234.0,0.0549976
1236.0,0.0550255
1238.0,0.0551294
1240.0,0.0552217
1242.0,0.0553382
1244.0,0.0554167
1246.0,0.0554035
1248.0,0.0555142
1250.0,0.0556577
1252.0,0.055777
1254.0,0.0560231
1256.0,0.0562431
1258.0,0.0564035
1260.0,0.0564938
1262.0,0.0567715
1264.0,0.0571166
1266.0,0.0568364
1268.0,0.0564933
1270.0,0.0564682
1272.0,0.0564478
1274.0,0.0564714
1276.0,0.0564544
1278.0,0.0565792
1280.0,0.0564652
1282.0,0.0563228
1284.0,0.0561506
1286.0,0.0559886
1288.0,0.0556737
1290.0,0.0552863
1292.0,0.0550929
1294.0,0.0549962
1296.0,0.0549236
1298.0,0.0548765
1300.0,0.054614
1302.0,0.0543919
1304.0,0.0541769
1306.0,0.0537026
1308.0,0.0534556
1310.0,0.0532614
1312.0,0.0527233
1314.0,0.0521755
1316.0,0.0517374
1318.0,0.0514058
1320.0,0.0510413
1322.0,0.0505046
1324.0,0.0499261
1326.0,0.0493346
1328.0,0.0489185
1330.0,0.0483836
1332.0,0.0478679
1334.0,0.0471969
1336.0,0.0464439
1338.0,0.046087
1340.0,0.045871
1342.0,0.0455614
1344.0,0.0453488
1346.0,0.0454363
1348.0,0.0458579
1350.0,0.0453748
1352.0,0.0444105
1354.0,0.0443657
1356.0,0.0477098
1358.0,0.0588345
1360.0,0.0461971
1362.0,0.0
1364.0,0.0057095
1366.0,0.0631352
1368.0,0.145571
1370.0,0.0
1372.0,0.0
1374.0,0.00740904
1376.0,0.0313521
1378.0,0.0497012
1380.0,0.06817
1382.0,0.0580514
1384.0,0.0537118
1386.0,0.0359623
1388.0,0.0321235
1390.0,0.0250711
1392.0,0.0337552
1394.0,0.0515511
1396.0,0.0503469
1398.0,0.0378693
1400.0,0.0286602
1402.0,0.0255476
1404.0,0.0159977
1406.0,0.0143087
1408.0,0.0209985
1410.0,0.0240871
1412.0,0.0243348
1414.0,0.021002
1416.0,0.0195795
1418.0,0.0196882
1420.0,0.0193323
1422.0,0.0180982
1424.0,0.0160663
1426.0,0.0147416
1428.0,0.0141981
1430.0,0.013962
1432.0,0.0147992
1434.0,0.0152772
1436.0,0.0145547
1438.0,0.0131938
1440.0,0.0129468
1442.0,0.0135369
1444.0,0.0142174
1446.0,0.0141571
1448.0,0.0132921
1450.0,0.0123603
1452.0,0.0116473
1454.0,0.0115168
1456.0,0.01171
1458.0,0.011204
1460.0,0.0110743
1462.0,0.0116247
1464.0,0.011873
1466.0,0.0120232
1468.0,0.0119819
1470.0,0.0120677
1472.0,0.0122008
1474.0,0.01213
1476.0,0.0117918
1478.0,0.0113217
1480.0,0.0112191
1482.0,0.0112961
1484.0,0.011552
1486.0,0.0117572
1488.0,0.0115713
1490.0,0.0115802
1492.0,0.0116942
1494.0,0.0115968
1496.0,0.0116357
1498.0,0.0117491
1500.0,0.011906
1502.0,0.011995
1504.0,0.0122226
1506.0,0.0123515
1508.0,0.0121653
1510.0,0.0124724
1512.0,0.0129769
1514.0,0.0131886
1516.0,0.0128969
1518.0,0.0127692
1520.0,0.0132751
1522.0,0.013648
1524.0,0.0136837
1526.0,0.0139536
1528.0,0.0144085
1530.0,0.0147635
1532.0,0.0148813
1534.0,0.0152242
1536.0,0.0153706
1538.0,0.0155853
1540.0,0.0158627
1542.0,0.0161867
1544.0,0.0165155
1546.0,0.0166829
1548.0,0.0169647
1550.0,0.0172853
1552.0,0.0176333
1554.0,0.0180614
1556.0,0.018486
1558.0,0.018814
1560.0,0.0190077
1562.0,0.0190771
1564.0,0.0192252
1566.0,0.0197206
1568.0,0.0201731
1570.0,0.0203788
1572.0,0.0206366
1574.0,0.0211279
1576.0,0.0217227
1578.0,0.0219786
1580.0,0.0220835
1582.0,0.0221817
1584.0,0.0225791
1586.0,0.0230501
1588.0,0.0231162
1590.0,0.0230421
1592.0,0.0232613
1594.0,0.0236413
1596.0,0.0239481
1598.0,0.0244163
1600.0,0.0248434
1602.0,0.0249749
1604.0,0.0250485
1606.0,0.0253363
1608.0,0.0256838
1610.0,0.0259075
1612.0,0.0260972
1614.0,0.025929
1616.0,0.0260426
1618.0,0.0262335
1620.0,0.026249
1622.0,0.0267239
1624.0,0.0270022
1626.0,0.0270882
1628.0,0.0267961
1630.0,0.0266737
1632.0,0.0273177
1634.0,0.0278635
1636.0,0.0278418
1638.0,0.02776
1640.0,0.0279098
1642.0,0.0281786
1644.0,0.0282182
1646.0,0.0281714
1648.0,0.028739
1650.0,0.0290299
1652.0,0.02906
1654.0,0.0288736
1656.0,0.0285108
1658.0,0.0286111
1660.0,0.0288935
1662.0,0.0292295
1664.0,0.0292229
1666.0,0.028841
1668.0,0.0289098
1670.0,0.0292431
1672.0,0.0291986
1674.0,0.0287316
1676.0,0.028666
1678.0,0.0292189
1680.0,0.0293235
1682.0,0.0290993
1684.0,0.0291665
1686.0,0.0294414
1688.0,0.0297698
1690.0,0.0299017
1692.0,0.0298251
1694.0,0.029634
1696.0,0.02945
1698.0,0.0291723
1700.0,0.0290016
1702.0,0.0292444
1704.0,0.0294995
1706.0,0.0294663
1708.0,0.0291448
1710.0,0.0290893
1712.0,0.0290908
1714.0,0.0287609
1716.0,0.0288469
1718.0,0.0289356
1720.0,0.029
1722.0,0.0290837
1724.0,0.0287759
1726.0,0.0284199
1728.0,0.0281193
1730.0,0.0276683
1732.0,0.0268917
1734.0,0.0267014
1736.0,0.0270372
1738.0,0.027077
1740.0,0.0272214
1742.0,0.0271738
1744.0,0.0273143
1746.0,0.026809
1748.0,0.025384
1750.0,0.0250267
1752.0,0.0258135
1754.0,0.0259461
1756.0,0.0251165
1758.0,0.024771
1760.0,0.0239755
1762.0,0.0231238
1764.0,0.023028
1766.0,0.0232843
1768.0,0.0236736
1770.0,0.0231513
1772.0,0.023573
1774.0,0.0237868
1776.0,0.0231745
1778.0,0.0225922
1780.0,0.022481
1782.0,0.0225367
1784.0,0.0228129
1786.0,0.0231243
1788.0,0.0223255
1790.0,0.0218861
1792.0,0.0219212
1794.0,0.022106
1796.0,0.0231782
1798.0,0.0226495
1800.0,0.0211932
1802.0,0.0318414
1804.0,0.0360058
1806.0,0.039015
1808.0,0.0343962
1810.0,0.0363928
1812.0,0.0457997
1814.0,0.0478173
1816.0,0.052679
1818.0,0.0613277
1820.0,0.0816328
1822.0,0.0847252
1824.0,0.0699271
1826.0,0.051387
1828.0,0.0486331
1830.0,0.0772176
1832.0,0.0934747
1834.0,0.303745
1836.0,0.0
1838.0,0.0
1840.0,0.0
1842.0,0.0
1844.0,0.0
1846.0,0.0
1848.0,0.0
1850.0,0.0
1852.0,0.168915
1854.0,0.0
1856.0,0.0674704
1858.0,0.114069
1860.0,0.0
1862.0,0.461409
1864.0,0.373147
1866.0,0.25804
1868.0,0.0440822
1870.0,0.0727606
1872.0,0.435862
1874.0,0.310121
1876.0,0.0578699
1878.0,0.0
1880.0,0.0
1882.0,0.0
1884.0,0.063982
1886.0,0.10456
1888.0,0.1591
1890.0,0.208633
1892.0,0.0811403
1894.0,0.0128611
1896.0,0.0774716
1898.0,0.130026
1900.0,0.0
1902.0,1.0
1904.0,0.0
1906.0,0.0
1908.0,0.0921811
1910.0,0.137836
1912.0,0.323113
1914.0,0.101181
1916.0,0.0
1918.0,0.0
1920.0,0.0
1922.0,0.0170288
1924.0,0.028179
1926.0,0.0195285
1928.0,0.0031603
1930.0,0.0090943
1932.0,0.0384417
1934.0,0.0591324
1936.0,0.0349962
1938.0,0.0120023
1940.0,0.0118489
1942.0,0.011652
1944.0,0.0126845
1946.0,0.0150555
1948.0,0.0131628
1950.0,0.0138046
1952.0,0.0158251
1954.0,0.0177082
1956.0,0.012915
1958.0,0.0127073
1960.0,0.00886226
1962.0,0.0131767
1964.0,0.0152662
1966.0,0.0129221
1968.0,0.00933144
1970.0,0.00835226
1972.0,0.00728244
1974.0,0.00576395
1976.0,0.00477479
1978.0,0.00386951
1980.0,0.00583739
1982.0,0.00719607
1984.0,0.00715194
1986.0,0.00673218
1988.0,0.00742041
1990.0,0.00753744
1992.0,0.00682767
1994.0,0.00523178
1996.0,0.00426497
1998.0,0.00446778
2000.0,0.00644011
2002.0,0.00701699
2004.0,0.0116672
2006.0,0.0115664
2008.0,0.0163669
2010.0,0.0171034
2012.0,0.0143357
2014.0,0.0164171
2016.0,0.0206587
2018.0,0.0176199
2020.0,0.00699118
2022.0,0.00454932
2024.0,0.00701392
2026.0,0.00853323
2028.0,0.0111026
2030.0,0.0105312
2032.0,0.00884499
2034.0,0.00810885
2036.0,0.00572558
2038.0,0.00379682
2040.0,0.00442525
2042.0,0.00571085
2044.0,0.0061307
2046.0,0.00603077
2048.0,0.00671731
2050.0,0.00869142
2052.0,0.00823004
2054.0,0.00811925
2056.0,0.00697715
2058.0,0.00651663
2060.0,0.00754249
2062.0,0.00841268
2064.0,0.00847238
2066.0,0.00959261
2068.0,0.00926188
2070.0,0.0089193
2072.0,0.00930624
2074.0,0.00705896
2076.0,0.00765347
2078.0,0.00870037
2080.0,0.0103704
2082.0,0.0100243
2084.0,0.00862006
2086.0,0.00779215
2088.0,0.00698536
2090.0,0.00644309
2092.0,0.00697942
2094.0,0.00822771
2096.0,0.0101511
2098.0,0.00947693
2100.0,0.00886493
2102.0,0.0100202
2104.0,0.0107299
2106.0,0.00976962
2108.0,0.0096646
2110.0,0.00973914
2112.0,0.00937888
2114.0,0.00986305
2116.0,0.0108625
2118.0,0.0109071
2120.0,0.0103752
2122.0,0.0102815
2124.0,0.0112595
2126.0,0.0117197
2128.0,0.0108127
2130.0,0.0101611
2132.0,0.0103071
2134.0,0.0105121
2136.0,0.0107994
2138.0,0.0107073
2140.0,0.0106425
2142.0,0.011429
2144.0,0.0107941
2146.0,0.0103894
2148.0,0.0104232
2150.0,0.010957
2152.0,0.0110509
2154.0,0.0106437
2156.0,0.0103797
2158.0,0.0108706
2160.0,0.0119966
2162.0,0.0126898
2164.0,0.0131845
2166.0,0.0123047
2168.0,0.0113855
2170.0,0.0117209
2172.0,0.0134806
2174.0,0.0148053
2176.0,0.0149776
2178.0,0.0134564
2180.0,0.0118459
2182.0,0.0102033
2184.0,0.0102553
2186.0,0.0127826
2188.0,0.0138244
2190.0,0.0144465
2192.0,0.0149033
2194.0,0.0148032
2196.0,0.0146587
2198.0,0.0132485
2200.0,0.011552
2202.0,0.0127861
2204.0,0.0135196
2206.0,0.0103352
2208.0,0.00963708
2210.0,0.0123988
2212.0,0.0123763
2214.0,0.0127149
2216.0,0.0142219
2218.0,0.0141208
2220.0,0.012695
2222.0,0.012195
2224.0,0.0134068
2226.0,0.0146752
2228.0,0.0147458
2230.0,0.0130347
2232.0,0.0101651
2234.0,0.0106312
2236.0,0.0120903
2238.0,0.0125187
2240.0,0.0140652
2242.0,0.0147818
2244.0,0.0144073
2246.0,0.0125308
2248.0,0.0112387
2250.0,0.0111125
2252.0,0.00952325
2254.0,0.0094423
2256.0,0.0104976
2258.0,0.0109653
2260.0,0.00971423
2262.0,0.00959757
2264.0,0.0110879
2266.0,0.0109467
2268.0,0.00920231
2270.0,0.0100092
2272.0,0.0108399
2274.0,0.0100923
2276.0,0.0117956
2278.0,0.0129185
2280.0,0.0119993
2282.0,0.0138807
2284.0,0.0158003
2286.0,0.0147961
2288.0,0.0111
2290.0,0.0108817
2292.0,0.0111851
2294.0,0.00981179
2296.0,0.00954274
2298.0,0.00835597
2300.0,0.00803682
2302.0,0.00868804
2304.0,0.00991253
2306.0,0.00927969
2308.0,0.00745096
2310.0,0.00652517
2312.0,0.00759634
2314.0,0.00893819
2316.0,0.00816216
2318.0,0.00841387
2320.0,0.00881827
2322.0,0.00964105
2324.0,0.00847302
2326.0,0.00807179
2328.0,0.0104104
2330.0,0.0119024
2332.0,0.0119794
2334.0,0.0078839
2336.0,0.00632218
2338.0,0.00740987
2340.0,0.00899721
2342.0,0.00968852
2344.0,0.00887803
2346.0,0.00661716
2348.0,0.00541966
2350.0,0.00126126
2352.0,0.00114673
2354.0,0.0102051
2356.0,0.0123754
2358.0,0.00482173
2360.0,0.00189696
2362.0,0.00488944
2364.0,0.000238269
2366.0,0.00164634
2368.0,0.00872348
2370.0,0.00994137
2372.0,0.0113573
2374.0,0.00955345
2376.0,0.0146315
2378.0,0.0178631
2380.0,0.0117799
2382.0,0.00841357
2384.0,0.00776703
2386.0,0.00792359
2388.0,0.0111715
2390.0,0.00703819
2392.0,0.00433453
2394.0,0.0183744
2396.0,0.0252849
2398.0,0.0136981
2400.0,0.00618513
2402.0,0.00960647
2404.0,0.0136867
2406.0,0.0098881
2408.0,0.0117063
2410.0,0.0157882
2412.0,0.0186061
2414.0,0.0158787
2416.0,0.00719169
2418.0,0.00181951
2420.0,0.007106
2422.0,0.025232
2424.0,0.0251634
2426.0,0.022041
2428.0,0.0231331
2430.0,0.0227235
2432.0,0.0151483
2434.0,0.00356494
2436.0,0.00896224
2438.0,3.41234e-05
2440.0,0.0
2442.0,0.0
2444.0,0.0
2446.0,0.0
2448.0,0.0
2450.0,0.0
2452.0,0.0089657
2454.0,0.0
2456.0,0.0
2458.0,0.0
2460.0,0.00221431
2462.0,0.00264185
2464.0,0.0
2466.0,0.0
2468.0,0.0
2470.0,0.0127744
2472.0,0.0321108
2474.0,0.0
2476.0,0.0
2478.0,0.0
2480.0,0.0
2482.0,0.0
2484.0,0.0
2486.0,0.0
2488.0,0.0
2490.0,0.0501728
2492.0,0.0
2494.0,0.0
2496.0,0.0705683
2498.0,0.140338
2500.0,0.212872