File: data/spectra_ascii/AsphaltNassPfuetzen___corthum00443.txt
Wavelength (nm),Reflectance
350.0,0.0255446
352.0,0.0246451
354.0,0.0252987
356.0,0.0250454
358.0,0.0249599
360.0,0.0247637
362.0,0.0248611
364.0,0.0242765
366.0,0.0245949
368.0,0.0243968
370.0,0.0248228
372.0,0.0244764
374.0,0.024377
376.0,0.0244949
378.0,0.0242787
380.0,0.024392
382.0,0.024529
384.0,0.0243149
386.0,0.0244024
388.0,0.0245846
390.0,0.0241871
392.0,0.0245771
394.0,0.0244655
396.0,0.024346
398.0,0.0246704
400.0,0.0241244
402.0,0.024325
404.0,0.0242321
406.0,0.0244976
408.0,0.0243077
410.0,0.024545
412.0,0.0245345
414.0,0.0244543
416.0,0.0246033
418.0,0.0246137
420.0,0.024539
422.0,0.0246834
424.0,0.0246619
426.0,0.0248583
428.0,0.0249483
430.0,0.024972
432.0,0.0251082
434.0,0.0251878
436.0,0.0252657
438.0,0.0253518
440.0,0.0254778
442.0,0.0255477
444.0,0.0256236
446.0,0.0256582
448.0,0.0257953
450.0,0.0258347
452.0,0.0258628
454.0,0.0259534
456.0,0.0260488
458.0,0.0260817
460.0,0.0261626
462.0,0.0262396
464.0,0.0263319
466.0,0.0263558
468.0,0.0264183
470.0,0.0265727
472.0,0.02658
474.0,0.0267086
476.0,0.0268381
478.0,0.02685
480.0,0.0269537
482.0,0.0270592
484.0,0.0270963
486.0,0.0272642
488.0,0.0274303
490.0,0.0275073
492.0,0.0276808
494.0,0.0277083
496.0,0.0277889
498.0,0.0279437
500.0,0.0280759
502.0,0.0282586
504.0,0.0283902
506.0,0.028557
508.0,0.0286513
510.0,0.0288034
512.0,0.0289497
514.0,0.0291151
516.0,0.0292461
518.0,0.0293955
520.0,0.029554
522.0,0.0297225
524.0,0.0298255
526.0,0.0300294
528.0,0.030239
530.0,0.0304135
532.0,0.0306465
534.0,0.0308442
536.0,0.0310407
538.0,0.031248
540.0,0.0315436
542.0,0.0317986
544.0,0.0320934
546.0,0.0322925
548.0,0.0325233
550.0,0.0328076
552.0,0.0330651
554.0,0.0334186
556.0,0.0337972
558.0,0.0340879
560.0,0.034382
562.0,0.034679
564.0,0.0349771
566.0,0.0352863
568.0,0.0355472
570.0,0.0358513
572.0,0.0361801
574.0,0.036479
576.0,0.0367768
578.0,0.0370237
580.0,0.0373133
582.0,0.037472
584.0,0.0378149
586.0,0.0380694
588.0,0.0384028
590.0,0.0386418
592.0,0.0388683
594.0,0.0390416
596.0,0.0391886
598.0,0.0394173
600.0,0.039642
602.0,0.0397881
604.0,0.0400294
606.0,0.0402218
608.0,0.0404086
610.0,0.0405835
612.0,0.040777
614.0,0.0409919
616.0,0.0411518
618.0,0.0413502
620.0,0.0415366
622.0,0.0417384
624.0,0.0419727
626.0,0.0421338
628.0,0.0423993
630.0,0.0426082
632.0,0.0427635
634.0,0.0428604
636.0,0.0430577
638.0,0.0432739
640.0,0.0434033
642.0,0.0436159
644.0,0.0438457
646.0,0.0439491
648.0,0.0441881
650.0,0.0444232
652.0,0.0445415
654.0,0.0446564
656.0,0.0448772
658.0,0.0450149
660.0,0.0452159
662.0,0.0454349
664.0,0.0455251
666.0,0.045751
668.0,0.0459244
670.0,0.0461901
672.0,0.0462941
674.0,0.0464956
676.0,0.046694
678.0,0.0468613
680.0,0.0469968
682.0,0.0472122
684.0,0.047384
686.0,0.0477217
688.0,0.0481344
690.0,0.0482101
692.0,0.0483191
694.0,0.0485749
696.0,0.0486826
698.0,0.0487744
700.0,0.0489826
702.0,0.0491496
704.0,0.0493908
706.0,0.0495361
708.0,0.0497556
710.0,0.0499084
712.0,0.0500667
714.0,0.0503141
716.0,0.0506608
718.0,0.0512174
720.0,0.0513404
722.0,0.051306
724.0,0.0516673
726.0,0.0518187
728.0,0.0520117
730.0,0.0521578
732.0,0.0523205
734.0,0.0524243
736.0,0.0525208
738.0,0.0527417
740.0,0.0529587
742.0,0.0531066
744.0,0.0533158
746.0,0.0535088
748.0,0.0537071
750.0,0.053919
752.0,0.0541207
754.0,0.0543446
756.0,0.0545083
758.0,0.0547836
760.0,0.0556162
762.0,0.0564006
764.0,0.0564864
766.0,0.0560776
768.0,0.0558196
770.0,0.0558986
772.0,0.0560985
774.0,0.0562232
776.0,0.0564819
778.0,0.0566006
780.0,0.0568122
782.0,0.0569953
784.0,0.0571047
786.0,0.0573296
788.0,0.0575827
790.0,0.0576856
792.0,0.0578225
794.0,0.0579662
796.0,0.0581924
798.0,0.0582805
800.0,0.0584803
802.0,0.0586716
804.0,0.0588552
806.0,0.058953
808.0,0.059095
810.0,0.0593497
812.0,0.0595166
814.0,0.0598728
816.0,0.0600969
818.0,0.0601206
820.0,0.0601617
822.0,0.0603296
824.0,0.0604637
826.0,0.060459
828.0,0.0606422
830.0,0.0607118
832.0,0.0607754
834.0,0.0608814
836.0,0.0609645
838.0,0.0610178
840.0,0.0611491
842.0,0.0610992
844.0,0.0612451
846.0,0.0613073
848.0,0.0614834
850.0,0.0615862
852.0,0.0615611
854.0,0.0617933
856.0,0.0619482
858.0,0.0619789
860.0,0.0621192
862.0,0.0620451
864.0,0.0622911
866.0,0.0624703
868.0,0.062461
870.0,0.0625243
872.0,0.062682
874.0,0.0627534
876.0,0.0628414
878.0,0.0629749
880.0,0.0629069
882.0,0.0630694
884.0,0.0631621
886.0,0.0632991
888.0,0.0633252
890.0,0.0635023
892.0,0.0635709
894.0,0.0637657
896.0,0.0638106
898.0,0.0640278
900.0,0.0640206
902.0,0.064074
904.0,0.0638221
906.0,0.0643282
908.0,0.0643114
910.0,0.0643626
912.0,0.0644452
914.0,0.064712
916.0,0.0646304
918.0,0.064799
920.0,0.0644449
922.0,0.0649273
924.0,0.0645032
926.0,0.0648298
928.0,0.0649343
930.0,0.065156
932.0,0.0647373
934.0,0.0652107
936.0,0.064836
938.0,0.0648077
940.0,0.0652032
942.0,0.0646243
944.0,0.0646301
946.0,0.0645287
948.0,0.0646089
950.0,0.0636538
952.0,0.0644999
954.0,0.0634554
956.0,0.0639936
958.0,0.0641397
960.0,0.0636924
962.0,0.0638572
964.0,0.0635366
966.0,0.0640397
968.0,0.0638805
970.0,0.0639833
972.0,0.0641271
974.0,0.0634121
976.0,0.0637797
978.0,0.0638123
980.0,0.0636665
982.0,0.0643703
984.0,0.0637196
986.0,0.0636605
988.0,0.0638061
990.0,0.0643517
992.0,0.064377
994.0,0.0644765
996.0,0.0640677
998.0,0.0649089
1000.0,0.064668
1002.0,0.0668909
1004.0,0.0672645
1006.0,0.0673241
1008.0,0.0674167
1010.0,0.0675384
1012.0,0.068135
1014.0,0.0684327
1016.0,0.0683872
1018.0,0.0684503
1020.0,0.0684333
1022.0,0.0689286
1024.0,0.068844
1026.0,0.0686591
1028.0,0.0691747
1030.0,0.0693332
1032.0,0.0694191
1034.0,0.0695951
1036.0,0.0697896
1038.0,0.0697004
1040.0,0.0700613
1042.0,0.0700309
1044.0,0.0697926
1046.0,0.0700903
1048.0,0.0703146
1050.0,0.0704882
1052.0,0.0704865
1054.0,0.0707168
1056.0,0.0708888
1058.0,0.0708539
1060.0,0.0708593
1062.0,0.070775
1064.0,0.0707519
1066.0,0.0706425
1068.0,0.0707619
1070.0,0.0709357
1072.0,0.0714062
1074.0,0.0714153
1076.0,0.0713308
1078.0,0.0711015
1080.0,0.0712967
1082.0,0.0715767
1084.0,0.0715927
1086.0,0.0714165
1088.0,0.0713357
1090.0,0.0710455
1092.0,0.0709766
1094.0,0.0710936
1096.0,0.0713634
1098.0,0.0717058
1100.0,0.0721343
1102.0,0.0721212
1104.0,0.0716137
1106.0,0.0715913
1108.0,0.0718925
1110.0,0.0718213
1112.0,0.0719737
1114.0,0.0722023
1116.0,0.0724943
1118.0,0.0729738
1120.0,0.0730541
1122.0,0.0730938
1124.0,0.0741697
1126.0,0.0740841
1128.0,0.0730926
1130.0,0.0724929
1132.0,0.0721229
1134.0,0.0716954
1136.0,0.0714587
1138.0,0.0709667
1140.0,0.0700852
1142.0,0.0697186
1144.0,0.0697699
1146.0,0.0698298
1148.0,0.0692066
1150.0,0.0686848
1152.0,0.0677985
1154.0,0.0671732
1156.0,0.0668072
1158.0,0.0663842
1160.0,0.066038
1162.0,0.0656893
1164.0,0.0657122
1166.0,0.0658269
1168.0,0.0656532
1170.0,0.0654335
1172.0,0.0655099
1174.0,0.0656647
1176.0,0.0657019
1178.0,0.0656393
1180.0,0.0654005
1182.0,0.0652987
1184.0,0.0654172
1186.0,0.0655758
1188.0,0.0657057
1190.0,0.0656171
1192.0,0.0654068
1194.0,0.0653561
1196.0,0.0653875
1198.0,0.0653502
1200.0,0.0653276
1202.0,0.0654502
1204.0,0.0655871
1206.0,0.0655674
1208.0,0.0656114
1210.0,0.0657274
1212.0,0.0658611
1214.0,0.0658948
1216.0,0.065842
1218.0,0.0660423
1220.0,0.0661784
1222.0,0.066106
1224.0,0.0661714
1226.0,0.0662035
1228.0,0.0661697
1230.0,0.0660465
1232.0,0.0660238
1234.0,0.0662439
1236.0,0.0664171
1238.0,0.0664727
1240.0,0.0665009
1242.0,0.0666131
1244.0,0.0667016
1246.0,0.066836
1248.0,0.0669218
1250.0,0.0670065
1252.0,0.0671481
1254.0,0.067231
1256.0,0.0673629
1258.0,0.0675128
1260.0,0.0676783
1262.0,0.0678851
1264.0,0.0680144
1266.0,0.0680555
1268.0,0.068133
1270.0,0.0680605
1272.0,0.0681437
1274.0,0.0681895
1276.0,0.068172
1278.0,0.0681246
1280.0,0.0679875
1282.0,0.0679743
1284.0,0.0679928
1286.0,0.0677778
1288.0,0.0677004
1290.0,0.0677159
1292.0,0.0675183
1294.0,0.0673521
1296.0,0.0673518
1298.0,0.067386
1300.0,0.0670615
1302.0,0.0667148
1304.0,0.0666206
1306.0,0.0664502
1308.0,0.0663282
1310.0,0.0660458
1312.0,0.0656553
1314.0,0.0653937
1316.0,0.0652004
1318.0,0.0648979
1320.0,0.0644338
1322.0,0.0639875
1324.0,0.0637279
1326.0,0.0633957
1328.0,0.0629747
1330.0,0.0626052
1332.0,0.0625448
1334.0,0.0624017
1336.0,0.0620395
1338.0,0.0616741
1340.0,0.0609795
1342.0,0.0605448
1344.0,0.0607283
1346.0,0.0609241
1348.0,0.0609146
1350.0,0.0614105
1352.0,0.0628635
1354.0,0.0617513
1356.0,0.0600105
1358.0,0.0676082
1360.0,0.0952052
1362.0,0.101692
1364.0,0.0654705
1366.0,0.00890344
1368.0,0.0
1370.0,0.0440991
1372.0,0.0973447
1374.0,0.100739
1376.0,0.0696814
1378.0,0.0497165
1380.0,0.0624391
1382.0,0.076417
1384.0,0.0797341
1386.0,0.0818566
1388.0,0.0638808
1390.0,0.0698195
1392.0,0.0778977
1394.0,0.0693667
1396.0,0.0558363
1398.0,0.0580312
1400.0,0.0604966
1402.0,0.0507908
1404.0,0.0467445
1406.0,0.0429314
1408.0,0.0315671
1410.0,0.0248136
1412.0,0.0276717
1414.0,0.0276939
1416.0,0.0275882
1418.0,0.0280363
1420.0,0.0272158
1422.0,0.0257083
1424.0,0.0247894
1426.0,0.0251165
1428.0,0.0242265
1430.0,0.0237929
1432.0,0.0231663
1434.0,0.0224064
1436.0,0.0214187
1438.0,0.0216581
1440.0,0.0217045
1442.0,0.0215349
1444.0,0.0208734
1446.0,0.020636
1448.0,0.0200892
1450.0,0.0190293
1452.0,0.0182507
1454.0,0.0182683
1456.0,0.018506
1458.0,0.0185902
1460.0,0.0182964
1462.0,0.0184586
1464.0,0.0188449
1466.0,0.0185223
1468.0,0.0182308
1470.0,0.0187087
1472.0,0.0188581
1474.0,0.0186383
1476.0,0.0183799
1478.0,0.0184708
1480.0,0.0192559
1482.0,0.0194003
1484.0,0.0188987
1486.0,0.0194948
1488.0,0.0199079
1490.0,0.019903
1492.0,0.0202653
1494.0,0.0202627
1496.0,0.0204357
1498.0,0.0206237
1500.0,0.0208272
1502.0,0.0213468
1504.0,0.0216068
1506.0,0.0219499
1508.0,0.0223904
1510.0,0.0225803
1512.0,0.0227098
1514.0,0.0229977
1516.0,0.0236145
1518.0,0.0241956
1520.0,0.0247766
1522.0,0.0253464
1524.0,0.0258298
1526.0,0.0259591
1528.0,0.0263123
1530.0,0.0265925
1532.0,0.0271624
1534.0,0.0278052
1536.0,0.0284868
1538.0,0.0289661
1540.0,0.0292911
1542.0,0.0296082
1544.0,0.0300484
1546.0,0.030617
1548.0,0.0308815
1550.0,0.0312089
1552.0,0.0318199
1554.0,0.032222
1556.0,0.0324928
1558.0,0.0330603
1560.0,0.0337549
1562.0,0.0341617
1564.0,0.0345487
1566.0,0.0349917
1568.0,0.0355939
1570.0,0.036213
1572.0,0.0368126
1574.0,0.0368492
1576.0,0.0371256
1578.0,0.0375946
1580.0,0.037855
1582.0,0.0384029
1584.0,0.0389992
1586.0,0.0391747
1588.0,0.0390481
1590.0,0.0393388
1592.0,0.0397235
1594.0,0.040226
1596.0,0.0406719
1598.0,0.0408201
1600.0,0.0411172
1602.0,0.0414112
1604.0,0.0415753
1606.0,0.0417442
1608.0,0.041921
1610.0,0.0421751
1612.0,0.0427034
1614.0,0.0430751
1616.0,0.0431009
1618.0,0.043139
1620.0,0.0433049
1622.0,0.0436983
1624.0,0.0438622
1626.0,0.0437805
1628.0,0.0440292
1630.0,0.0442277
1632.0,0.0443929
1634.0,0.0445004
1636.0,0.0446974
1638.0,0.0449628
1640.0,0.0452847
1642.0,0.0455866
1644.0,0.0455957
1646.0,0.0459408
1648.0,0.0461812
1650.0,0.046215
1652.0,0.0461559
1654.0,0.0464353
1656.0,0.0466148
1658.0,0.0467414
1660.0,0.0470345
1662.0,0.0470676
1664.0,0.0470283
1666.0,0.0468887
1668.0,0.046719
1670.0,0.0469412
1672.0,0.0474636
1674.0,0.0476509
1676.0,0.0475302
1678.0,0.047491
1680.0,0.0475203
1682.0,0.0473402
1684.0,0.0474359
1686.0,0.0477879
1688.0,0.0474773
1690.0,0.0469613
1692.0,0.0473303
1694.0,0.0476162
1696.0,0.0475835
1698.0,0.0476478
1700.0,0.047478
1702.0,0.0473392
1704.0,0.0475823
1706.0,0.047477
1708.0,0.0471774
1710.0,0.0471432
1712.0,0.0473451
1714.0,0.0472764
1716.0,0.0467361
1718.0,0.0465815
1720.0,0.0468311
1722.0,0.0465625
1724.0,0.0460726
1726.0,0.046226
1728.0,0.0463819
1730.0,0.0464573
1732.0,0.0461323
1734.0,0.0458237
1736.0,0.0459277
1738.0,0.0453533
1740.0,0.0448709
1742.0,0.0449941
1744.0,0.0449589
1746.0,0.0447122
1748.0,0.044461
1750.0,0.0440528
1752.0,0.043596
1754.0,0.0429398
1756.0,0.0422169
1758.0,0.0419671
1760.0,0.0422068
1762.0,0.0427274
1764.0,0.04265
1766.0,0.0423293
1768.0,0.0416838
1770.0,0.0415692
1772.0,0.0416228
1774.0,0.0414355
1776.0,0.0416689
1778.0,0.0426653
1780.0,0.0426582
1782.0,0.041824
1784.0,0.0424916
1786.0,0.0431394
1788.0,0.0434156
1790.0,0.0415546
1792.0,0.0405022
1794.0,0.0435427
1796.0,0.0443096
1798.0,0.0439722
1800.0,0.0465427
1802.0,0.0610884
1804.0,0.0593084
1806.0,0.0545116
1808.0,0.0563588
1810.0,0.060377
1812.0,0.073876
1814.0,0.083636
1816.0,0.0912131
1818.0,0.0864969
1820.0,0.0878893
1822.0,0.0882962
1824.0,0.0772721
1826.0,0.0937159
1828.0,0.125594
1830.0,0.134699
1832.0,0.29701
1834.0,0.687999
1836.0,0.0
1838.0,0.0
1840.0,0.0
1842.0,0.0
1844.0,0.0
1846.0,0.0
1848.0,0.0
1850.0,0.0
1852.0,0.238905
1854.0,0.0
1856.0,0.0
1858.0,0.0
1860.0,0.481526
1862.0,1.0
1864.0,0.603213
1866.0,0.47536
1868.0,0.805193
1870.0,1.0
1872.0,0.418148
1874.0,0.211456
1876.0,0.217054
1878.0,0.491348
1880.0,0.36038
1882.0,0.369484
1884.0,0.36978
1886.0,0.182109
1888.0,0.0963428
1890.0,0.218148
1892.0,0.214362
1894.0,0.202055
1896.0,0.428761
1898.0,1.0
1900.0,1.0
1902.0,0.0
1904.0,1.0
1906.0,0.863245
1908.0,0.264473
1910.0,0.215817
1912.0,0.183029
1914.0,0.157007
1916.0,0.26683
1918.0,0.249082
1920.0,0.160527
1922.0,0.0833361
1924.0,0.079948
1926.0,0.0633304
1928.0,0.0443539
1930.0,0.0704928
1932.0,0.0605757
1934.0,0.029049
1936.0,0.0224692
1938.0,0.00709177
1940.0,0.0
1942.0,0.00840304
1944.0,0.0161802
1946.0,0.0161316
1948.0,0.0241628
1950.0,0.0272081
1952.0,0.032063
1954.0,0.0257919
1956.0,0.0241125
1958.0,0.0342775
1960.0,0.0277255
1962.0,0.0184339
1964.0,0.013973
1966.0,0.0105237
1968.0,0.00546161
1970.0,0.00526584
1972.0,0.00819991
1974.0,0.010525
1976.0,0.0104726
1978.0,0.00989698
1980.0,0.00912908
1982.0,0.00947499
1984.0,0.0101881
1986.0,0.0106834
1988.0,0.0114917
1990.0,0.0128262
1992.0,0.0128272
1994.0,0.0116559
1996.0,0.0106167
1998.0,0.0106723
2000.0,0.012492
2002.0,0.0186916
2004.0,0.025882
2006.0,0.026604
2008.0,0.0275112
2010.0,0.0262994
2012.0,0.0242811
2014.0,0.0179572
2016.0,0.0148202
2018.0,0.0144259
2020.0,0.013421
2022.0,0.0124425
2024.0,0.0131605
2026.0,0.0161655
2028.0,0.0149628
2030.0,0.0119712
2032.0,0.0111647
2034.0,0.011228
2036.0,0.0109599
2038.0,0.0112947
2040.0,0.0112798
2042.0,0.011699
2044.0,0.011807
2046.0,0.0125581
2048.0,0.0133131
2050.0,0.0150101
2052.0,0.0147572
2054.0,0.0128618
2056.0,0.0139493
2058.0,0.0159821
2060.0,0.0159471
2062.0,0.0160214
2064.0,0.0158191
2066.0,0.0162048
2068.0,0.0174873
2070.0,0.0191417
2072.0,0.0189847
2074.0,0.0174613
2076.0,0.0166007
2078.0,0.0173779
2080.0,0.0169735
2082.0,0.0169899
2084.0,0.0182289
2086.0,0.017101
2088.0,0.0161733
2090.0,0.0173701
2092.0,0.0174769
2094.0,0.0173199
2096.0,0.0189795
2098.0,0.0198874
2100.0,0.01941
2102.0,0.0184604
2104.0,0.0187701
2106.0,0.0205248
2108.0,0.0215875
2110.0,0.020981
2112.0,0.0203671
2114.0,0.0202595
2116.0,0.0203524
2118.0,0.0207364
2120.0,0.0215739
2122.0,0.0223402
2124.0,0.0219387
2126.0,0.0214966
2128.0,0.0213216
2130.0,0.0215496
2132.0,0.0222038
2134.0,0.0232385
2136.0,0.0227118
2138.0,0.0212867
2140.0,0.0215384
2142.0,0.0233523
2144.0,0.0243773
2146.0,0.0245368
2148.0,0.0241537
2150.0,0.0239041
2152.0,0.0229131
2154.0,0.0232436
2156.0,0.0250139
2158.0,0.0244917
2160.0,0.0247903
2162.0,0.025377
2164.0,0.025671
2166.0,0.0256306
2168.0,0.0256297
2170.0,0.0257223
2172.0,0.0249459
2174.0,0.0245915
2176.0,0.0254769
2178.0,0.0249786
2180.0,0.0250176
2182.0,0.0261364
2184.0,0.0263966
2186.0,0.0261668
2188.0,0.0257324
2190.0,0.0263175
2192.0,0.0257497
2194.0,0.0246371
2196.0,0.024706
2198.0,0.0257736
2200.0,0.0256034
2202.0,0.026628
2204.0,0.0272935
2206.0,0.025486
2208.0,0.0238294
2210.0,0.0243819
2212.0,0.0249544
2214.0,0.0244336
2216.0,0.0248037
2218.0,0.026138
2220.0,0.0257052
2222.0,0.0245024
2224.0,0.0255249
2226.0,0.0260538
2228.0,0.0241481
2230.0,0.0236342
2232.0,0.0253805
2234.0,0.0260995
2236.0,0.0259214
2238.0,0.0257199
2240.0,0.0262433
2242.0,0.0256393
2244.0,0.0256452
2246.0,0.0252832
2248.0,0.0236197
2250.0,0.023765
2252.0,0.0261731
2254.0,0.0278444
2256.0,0.026834
2258.0,0.0273356
2260.0,0.0302767
2262.0,0.0295119
2264.0,0.0265013
2266.0,0.023559
2268.0,0.0232237
2270.0,0.0245937
2272.0,0.022504
2274.0,0.0214475
2276.0,0.0229099
2278.0,0.0227523
2280.0,0.0222839
2282.0,0.022349
2284.0,0.0227631
2286.0,0.0231336
2288.0,0.0230288
2290.0,0.0214286
2292.0,0.0192143
2294.0,0.0198337
2296.0,0.0209206
2298.0,0.0226724
2300.0,0.0243764
2302.0,0.0235966
2304.0,0.0224261
2306.0,0.0196448
2308.0,0.0166461
2310.0,0.0153545
2312.0,0.016824
2314.0,0.0192863
2316.0,0.0206599
2318.0,0.0195585
2320.0,0.0180567
2322.0,0.017721
2324.0,0.021815
2326.0,0.0222074
2328.0,0.0207001
2330.0,0.0212933
2332.0,0.0234441
2334.0,0.0241837
2336.0,0.0222191
2338.0,0.0164765
2340.0,0.0168672
2342.0,0.0226894
2344.0,0.0241933
2346.0,0.0199568
2348.0,0.0196375
2350.0,0.0182304
2352.0,0.01706
2354.0,0.0213325
2356.0,0.0222982
2358.0,0.0263395
2360.0,0.0241163
2362.0,0.0182188
2364.0,0.0201048
2366.0,0.0205161
2368.0,0.0205048
2370.0,0.021515
2372.0,0.0215606
2374.0,0.0223741
2376.0,0.0211328
2378.0,0.0193733
2380.0,0.020596
2382.0,0.0199342
2384.0,0.0184843
2386.0,0.0174078
2388.0,0.0150413
2390.0,0.0119181
2392.0,0.016271
2394.0,0.0148962
2396.0,0.0119649
2398.0,0.0163036
2400.0,0.0171639
2402.0,0.0113859
2404.0,0.0149929
2406.0,0.0192516
2408.0,0.0179643
2410.0,0.0160456
2412.0,0.0155405
2414.0,0.0331986
2416.0,0.0480327
2418.0,0.0351009
2420.0,0.0255425
2422.0,0.0296619
2424.0,0.0271506
2426.0,0.0207923
2428.0,0.0111639
2430.0,0.0181429
2432.0,0.0361068
2434.0,0.0384589
2436.0,0.0287586
2438.0,0.0144555
2440.0,0.0176201
2442.0,0.040096
2444.0,0.0346068
2446.0,0.0397851
2448.0,0.050194
2450.0,0.0274584
2452.0,0.0255143
2454.0,0.0271288
2456.0,0.029695
2458.0,0.0293986
2460.0,0.0275676
2462.0,0.0
2464.0,0.0
2466.0,0.0308487
2468.0,0.0195962
2470.0,0.00478984
2472.0,0.0606327
2474.0,0.151303
2476.0,0.0822269
2478.0,0.00702548
2480.0,0.0636829
2482.0,0.0591464
2484.0,0.0
2486.0,0.113768
2488.0,0.300404
2490.0,0.425581
2492.0,0.272136
2494.0,0.0
2496.0,0.094697
2498.0,0.217655
2500.0,0.104679